time,seconds_elapsed,z,y,x
1690821937229702000,0.205701904296875,-0.0030277175828814507,0.007962001487612724,0.057267144322395325
1690821937239743000,0.215742919921875,-0.0006857332773506641,0.005632268264889717,0.058882877230644226
1690821937249782800,0.22578271484375,-0.00045671314001083374,0.0039618718437850475,0.053845055401325226
1690821937259822800,0.23582275390625,-0.0011344878003001213,0.004896374884992838,0.04452292621135712
1690821937269894000,0.245893798828125,-0.0002423962578177452,0.002021653577685356,0.028135506436228752
1690821937279934000,0.255933837890625,-0.0004874072037637234,0.0012280314695090055,0.011408457532525063
1690821937289975000,0.26597509765625,0.0007607173174619675,-0.000862764660269022,-0.007252611219882965
1690821937300014800,0.276014892578125,-0.001530932728201151,-0.0030697262845933437,-0.025683017447590828
1690821937310054700,0.2860546875,-0.00023479806259274483,-0.00557198841124773,-0.037302739918231964
1690821937320095700,0.296095703125,0.00023871194571256638,-0.0062260618433356285,-0.04465758800506592
1690821937330135800,0.3061357421875,0.0018537200521677732,-0.003458666615188122,-0.04437695071101189
1690821937340176000,0.31617578125,0.0020718330051749945,-0.003881310112774372,-0.04330902919173241
1690821937350216000,0.3262158203125,-0.0005289777182042599,-0.0026196553371846676,-0.03109942376613617
1690821937360257000,0.336257080078125,0.00042443396523594856,-0.0006798089016228914,-0.016159623861312866
1690821937370296800,0.346296875,-0.0011885338462889194,-0.0010055359452962875,-0.0026072412729263306
1690821937380337000,0.3563369140625,-0.00037200888618826866,0.0011548203183338046,0.011955189518630505
1690821937390376700,0.366376708984375,0.0007692137733101845,0.00036552874371409416,0.02248256467282772
1690821937400417800,0.376417724609375,-0.0016734376549720764,0.0025953934527933598,0.030380701646208763
1690821937410454000,0.3864541015625,-0.0009279605001211166,0.003976582549512386,0.03194732218980789
1690821937420493800,0.396493896484375,-0.0006067832000553608,0.003296411130577326,0.03164958208799362
1690821937430535000,0.406534912109375,-0.00016684597358107567,0.003771323710680008,0.025274749845266342
1690821937440575000,0.416574951171875,-0.001938647124916315,-0.0004300791770219803,0.014235947281122208
1690821937450615000,0.426614990234375,-0.0005666529759764671,0.0008582647424191236,0.0037689507007598877
1690821937460654800,0.43665478515625,0.0009710562881082296,-0.0002615945413708687,-0.004954231902956963
1690821937470726000,0.446725830078125,0.00045292312279343605,-0.0024649319238960743,-0.016655122861266136
1690821937480767000,0.45676708984375,0.0011328284163028002,-0.001337349647656083,-0.02209835685789585
1690821937490806800,0.466806884765625,0.0018678016494959593,-0.0020181366708129644,-0.02555658668279648
1690821937500846800,0.476846923828125,0.0011162576265633106,-0.004601669497787952,-0.024321146309375763
1690821937510887000,0.486886962890625,0.0006785169243812561,-0.004960375837981701,-0.021484073251485825
1690821937520928000,0.496927978515625,0.0006857072003185749,-0.0026295774150639772,-0.016862958669662476
1690821937530968000,0.506968017578125,-0.000036032870411872864,-0.00031416304409503937,-0.008334342390298843
1690821937541008000,0.5170078125,-0.0007747937925159931,0.0008456434588879347,-0.0005398020148277283
1690821937551049000,0.527049072265625,-0.000036689452826976776,0.0010646593291312456,0.008132626302540302
1690821937561089000,0.537089111328125,-0.0009839758276939392,-0.0002562685403972864,0.012647749856114388
1690821937571128800,0.54712890625,0.0006136954762041569,0.0033314190804958344,0.02022671513259411
1690821937581169000,0.5571689453125,-0.0009096330031752586,0.0017670782981440425,0.018597394227981567
1690821937591210000,0.5672099609375,0.0009594745934009552,0.002178499009460211,0.018320126459002495
1690821937601250000,0.57725,-0.0014797146432101727,-0.0012521850876510143,0.013977309688925743
1690821937611289900,0.587289794921875,-0.0018049045465886593,0.001135395490564406,0.007487763650715351
1690821937621331000,0.5973310546875,-0.0015535023994743824,0.000971877365373075,-0.0006609763950109482
1690821937631371000,0.60737109375,-0.000013171229511499405,-0.0003827502951025963,-0.0064074210822582245
1690821937641410800,0.617410888671875,0.0011823216918855906,-0.00039526703767478466,-0.010076457634568214
1690821937651451000,0.627450927734375,0.0010918565094470978,0.0000753344502300024,-0.01284639723598957
1690821937661492000,0.637491943359375,0.0013762821909040213,-0.002095141913741827,-0.015555629506707191
1690821937671562000,0.64756201171875,0.0010553484316915274,-0.0019256987143307924,-0.01287507638335228
1690821937681603000,0.65760302734375,-0.0002749003469944,-0.0018322214018553495,-0.010428164154291153
1690821937691643000,0.667642822265625,0.0007038526237010956,0.0014135156525298953,-0.00650731660425663
1690821937701683000,0.677682861328125,-0.0005811224691569805,-0.0009044997859746218,-0.0029053911566734314
1690821937711724000,0.68772412109375,-0.0006023677997291088,-0.0003073285333812237,0.0017078164964914322
1690821937721763800,0.697763916015625,-0.0017379396595060825,-0.0012777845840901136,0.005159272812306881
1690821937731804000,0.707803955078125,0.0010342041496187449,0.0016544501995667815,0.008053927682340145
1690821937741844000,0.717843994140625,-0.0019826246425509453,0.0005537656834349036,0.009997236542403698
1690821937751885000,0.727885009765625,0.001043769996613264,0.0013477394822984934,0.008183368481695652
1690821937761924900,0.7379248046875,-0.0003397422842681408,-0.000043229665607213974,0.007992686703801155
1690821937771965000,0.74796484375,-0.0005829492583870888,0.0023710925597697496,0.005412572994828224
1690821937782006000,0.758006103515625,-0.00006576348096132278,-0.00009073363617062569,-0.00035876408219337463
1690821937792045800,0.7680458984375,0.002120170509442687,0.000647242646664381,-0.0018050950020551682
1690821937802086000,0.7780859375,-0.0018495372496545315,0.0000813209917396307,-0.005176123231649399
1690821937812126000,0.7881259765625,0.0002028103917837143,-0.0016990164294838905,-0.007375659421086311
1690821937822167000,0.7981669921875,-0.0004091840237379074,-0.0010358893778175116,-0.009488612413406372
1690821937832206800,0.808206787109375,0.0005908873863518238,-0.0013029510155320168,-0.008316421881318092
1690821937842247000,0.818246826171875,-0.0006653256714344025,0.000025966204702854156,-0.007745441049337387
1690821937852288000,0.8282880859375,-0.0004515978507697582,-0.0007019678596407175,-0.00631742924451828
1690821937862327800,0.838327880859375,0.0013327200431376696,-0.0005096874665468931,0.00005258433520793915
1690821937872398800,0.84839892578125,-0.0005054050125181675,0.0004632181953638792,0.0006055980920791626
1690821937882439000,0.85843896484375,-0.00037038279697299004,-0.001084611052647233,0.0029925908893346786
1690821937892479000,0.86847900390625,-0.000942945946007967,0.0014653956750407815,0.0062512848526239395
1690821937902519000,0.87851904296875,-0.001929380465298891,0.00041983858682215214,0.006335972808301449
1690821937912559900,0.888559814453125,-0.0014181132428348064,-0.000008088070899248123,0.006847221404314041
1690821937922600000,0.898599853515625,-0.001825310755521059,0.0007706201868131757,0.003186440095305443
1690821937932639700,0.9086396484375,-0.000991725828498602,0.00005432520993053913,0.003722241148352623
1690821937942680800,0.918680908203125,0.00022374093532562256,-0.0014088153839111328,0.0016990378499031067
1690821937952721000,0.928720947265625,-0.00022689905017614365,-0.0012998611200600863,-0.0029230061918497086
1690821937962761000,0.938760986328125,-0.0007211817428469658,0.001973962876945734,-0.002535250037908554
1690821937972801000,0.948801025390625,-0.0005176439881324768,-0.0003060579765588045,-0.003843659535050392
1690821937982841900,0.958841796875,0.0010893074795603752,-0.0009417545516043901,-0.0038135647773742676
1690821937992882000,0.9688818359375,-0.001486307941377163,-0.0008382704108953476,-0.006253015249967575
1690821938002921700,0.978921630859375,0.00010786019265651703,-0.0013655764050781727,-0.0024505537003278732
1690821938012962800,0.988962890625,-0.0007377611473202705,0.0007332751993089914,-0.002630198374390602
1690821938023003000,0.9990029296875,-0.0007694526575505733,0.00041529384907335043,0.0001275036484003067
1690821938033043000,1.00904296875,-0.0008344561792910099,0.00006204703822731972,0.0004383940249681473
1690821938043083000,1.0190830078125,-0.0005670748651027679,0.0014045464340597391,0.0033122114837169647
1690821938053123800,1.029123779296875,-0.00042990967631340027,0.0006324750138446689,0.0045390864834189415
1690821938063164000,1.039163818359375,-0.001833395566791296,0.0025496846064925194,0.002596043050289154
1690821938073235000,1.04923486328125,-0.0003134305588901043,0.0011026427382603288,0.004037130624055862
1690821938083274800,1.059274658203125,-0.0005089063197374344,-0.0008427964057773352,0.0017276369035243988
1690821938093314800,1.069314697265625,-0.0006612436845898628,0.0014822668163105845,0.0004443023353815079
1690821938103356000,1.07935595703125,0.0006189378909766674,0.0009075566194951534,0.0008666794747114182
1690821938113396000,1.08939599609375,0.0010346875060349703,-0.0010674577206373215,0.00007066130638122559
1690821938123436000,1.09943603515625,-0.0006532240658998489,-0.001196887344121933,-0.002153344452381134
1690821938133476900,1.109476806640625,0.0005519152618944645,0.0003121650079265237,-0.0015130527317523956
1690821938143517000,1.119516845703125,0.00036735832691192627,-0.00177442142739892,-0.002945568412542343
1690821938153556700,1.129556640625,-0.0001136651262640953,0.0006333942292258143,-0.0018942616879940033
1690821938163596800,1.1395966796875,0.0021649354603141546,-0.0005410597659647465,-0.0003546886146068573
1690821938173638000,1.149637939453125,0.00022803526371717453,0.0008517007809132338,-0.0018930528312921524
1690821938183678000,1.159677978515625,-0.00022124033421278,0.0014051055768504739,0.000028152018785476685
1690821938193718000,1.169718017578125,0.0010904225055128336,0.0006762898992747068,0.0005899909883737564
1690821938203758000,1.179758056640625,0.0009237085469067097,0.00035085156559944153,0.0027082692831754684
1690821938213799000,1.189798828125,0.0009003900922834873,0.0021348069421947002,0.0011765696108341217
1690821938223839000,1.1998388671875,-0.0004599527455866337,-0.0001432611607015133,0.0029933787882328033
1690821938233878800,1.209878662109375,0.0005791233852505684,-0.0012926666531711817,0.0023692063987255096
1690821938243920000,1.219919921875,-0.00019239448010921478,-0.0009222207590937614,0.0016152653843164444
1690821938253960000,1.2299599609375,-0.0007079504430294037,-0.0021212713327258825,0.001905549317598343
1690821938264000000,1.24,0.0010119189973920584,-0.0013353724498301744,-0.00041779130697250366
1690821938274071000,1.250071044921875,-0.0019193333573639393,0.0012637389590963721,-0.0020816363394260406
1690821938284111000,1.260111083984375,0.00039229029789566994,0.00035426951944828033,-0.0017343591898679733
1690821938294152000,1.27015185546875,-0.0008448739536106586,-0.0015042310114949942,-0.0014278627932071686
1690821938304191700,1.280191650390625,0.0005618077702820301,0.00031896913424134254,-0.003281688317656517
1690821938314231800,1.290231689453125,0.0014841808006167412,0.00003573973663151264,-0.001989522948861122
1690821938324271900,1.30027197265625,0.0011345078237354755,0.0007129815639927983,0.00020279176533222198
1690821938334313000,1.31031298828125,-0.0006381780840456486,-0.002316573867574334,-0.0022721849381923676
1690821938344353000,1.32035302734375,0.001187685178592801,-0.000027320347726345062,-0.0005043782293796539
1690821938354393000,1.33039306640625,-0.000191450584679842,0.0002938355319201946,0.0005002990365028381
1690821938364434000,1.340433837890625,0.0004082932136952877,-0.0009304196573793888,0.0015410613268613815
1690821938374473700,1.3504736328125,-0.0008711442351341248,0.0009507517097517848,0.0023485329002141953
1690821938384513800,1.360513671875,-0.0017340080812573433,0.0003267730353400111,0.0002907067537307739
1690821938394553900,1.370553955078125,0.0012237417977303267,-0.00127672147937119,0.0012745074927806854
1690821938404568800,1.38056884765625,-0.0018543396145105362,0.000019705388695001602,-0.0006123427301645279
1690821938414609000,1.39060888671875,0.00004148110747337341,-0.00040816073305904865,0.0007410291582345963
1690821938424649000,1.40064892578125,-0.00013615144416689873,-0.00021934276446700096,0.00016738474369049072
1690821938434690000,1.41068994140625,0.0013839139137417078,-0.000031346455216407776,-0.0013527777045965195
1690821938444730000,1.420730224609375,-0.000187617726624012,0.0010770611697807908,0.0001417882740497589
1690821938454770200,1.430770263671875,0.0011104678269475698,-0.001482534222304821,-0.002598680555820465
1690821938464810000,1.44081005859375,-0.00023895595222711563,0.00014705397188663483,-0.001143530011177063
1690821938474881000,1.450881103515625,0.0012507252395153046,0.00014643510803580284,-0.0030491147190332413
1690821938484921000,1.460921142578125,-0.0003932439722120762,0.0006047652568668127,-0.0012421589344739914
1690821938494962000,1.4709619140625,-0.0007568150758743286,0.0001847115345299244,-0.0005310960114002228
1690821938505002000,1.481001953125,-0.0008614775724709034,0.00022465898655354977,-0.000022698193788528442
1690821938515042000,1.4910419921875,-0.00009864568710327148,-0.0015274223405867815,-0.0008901860564947128
1690821938525083100,1.501083251953125,0.0006582248024642467,0.00043719157110899687,0.0016387514770030975
1690821938535123200,1.511123291015625,-0.00037810206413269043,-0.00026180106215178967,0.0005728602409362793
1690821938545163000,1.5211630859375,0.00009327754378318787,-0.0015486404299736023,0.002223486080765724
1690821938555203000,1.531203125,0.0012316242791712284,-0.0014857256319373846,0.0022362656891345978
1690821938565244000,1.541243896484375,0.00006489362567663193,0.00039313454180955887,-0.0015451554208993912
1690821938575284000,1.551283935546875,-0.0007559992372989655,-0.000365913612768054,0.0006364248692989349
1690821938585324000,1.561323974609375,0.000775851309299469,-0.0005075938533991575,-0.00021472014486789703
1690821938595365000,1.571365234375,0.0007227431051433086,-0.00005124160088598728,-0.0012722015380859375
1690821938605405200,1.5814052734375,0.0007895883172750473,0.000788453035056591,-0.0020820684731006622
1690821938615445000,1.591445068359375,-0.00020158756524324417,-0.0009244042448699474,-0.00022245757281780243
1690821938625485000,1.601485107421875,0.0004394352436065674,-0.00003810436464846134,-0.0025236960500478745
1690821938635526000,1.61152587890625,-0.000544265378266573,-0.0011236588470637798,-0.0022586695849895477
1690821938645566000,1.62156591796875,-0.0003511863760650158,0.00007449719123542309,-0.001756664365530014
1690821938655606000,1.63160595703125,-0.0008890177123248577,-0.002012210665270686,-0.0005607288330793381
1690821938665677000,1.641677001953125,0.0003634667955338955,-0.0011938211973756552,-0.0012318454682826996
1690821938675717000,1.651717041015625,-0.0006871302612125874,-0.000003934139385819435,-0.00042307376861572266
1690821938685758200,1.66175830078125,-0.0007260125130414963,-0.00009128567762672901,0.0002147536724805832
1690821938695798000,1.671798095703125,0.00004634540528059006,-0.0025329473428428173,-0.0005836766213178635
1690821938705838000,1.681838134765625,-0.0005307616665959358,0.00025218655355274677,0.000027785077691078186
1690821938715878000,1.6918779296875,-0.0018218671903014183,-0.00048809428699314594,-0.0005356539040803909
1690821938725919000,1.7019189453125,0.000993360299617052,-0.00027184560894966125,0.00012321211397647858
1690821938735959000,1.711958984375,0.0011150131467729807,0.000509926350787282,-0.0003723911941051483
1690821938745999000,1.7219990234375,0.00063724210485816,0.001084103831090033,-0.0017537735402584076
1690821938756040200,1.732040283203125,0.0005268538370728493,0.0005643017357215285,-0.000864202156662941
1690821938766080000,1.742080078125,0.0009638783521950245,0.0007493915036320686,-0.0013678055256605148
1690821938776120000,1.7521201171875,0.0002778456546366215,-0.0014462198596447706,-0.0012629609555006027
1690821938786159900,1.762159912109375,-0.001504342071712017,0.00027551385574042797,0.0007613077759742737
1690821938796201000,1.772200927734375,0.0011386920232325792,-0.0002587512135505676,0.0007951352745294571
1690821938806241000,1.782240966796875,0.0007855570875108242,0.00035271060187369585,0.00021536462008953094
1690821938816281000,1.792281005859375,0.00009085284546017647,0.00009191315621137619,0.0001530684530735016
1690821938826322200,1.802322265625,-0.0004100874066352844,-0.0001722725573927164,0.000762399286031723
1690821938836362200,1.8123623046875,-0.0002840789966285229,-0.0002541618887335062,-0.0018698051571846008
1690821938846402000,1.822402099609375,-0.0008689095266163349,0.00048007152508944273,-0.0015491601079702377
1690821938856441900,1.83244189453125,0.0010595533531159163,-0.001354145584627986,-0.0003454536199569702
1690821938866513000,1.842512939453125,-0.0014360947534441948,0.0005071377381682396,0.00017359666526317596
1690821938876554000,1.852553955078125,-0.00007078563794493675,-0.0010575475171208382,0.0007281918078660965
1690821938886594000,1.862593994140625,-0.0018255426548421383,0.00015658768825232983,0.001143643632531166
1690821938896634000,1.872634033203125,-0.00030488381162285805,-0.0004987434949725866,0.00023832544684410095
1690821938906674000,1.882673828125,-0.00038611050695180893,-0.0012444285675883293,-0.0009840652346611023
1690821938916715000,1.892715087890625,-0.00031594838947057724,-0.00042997091077268124,-0.002736251801252365
1690821938926755000,1.902755126953125,0.00020203646272420883,0.0001916110049933195,0.00006859004497528076
1690821938936795000,1.912794921875,-0.0003170180134475231,0.0004000746412202716,-0.0001083221286535263
1690821938946836000,1.9228359375,-0.00047600874677300453,-0.0005040685646235943,0.0005987472832202911
1690821938956876000,1.9328759765625,-0.0014363299123942852,-0.0013274175580590963,-0.0007019191980361938
1690821938966916000,1.942916015625,0.0010609161108732224,-0.0005313986912369728,0.00048158876597881317
1690821938976956200,1.9529560546875,0.0005578259006142616,-0.0005959197878837585,-0.0002634860575199127
1690821938986997200,1.962997314453125,-0.00006775045767426491,-0.00038739433512091637,0.0011597070842981339
1690821938997037000,1.973037109375,-0.0002427925355732441,0.00020078453235328197,0.00013518333435058594
1690821939007076900,1.983076904296875,-0.00046623172238469124,-0.00014436105266213417,-0.0004781428724527359
1690821939017118000,1.993117919921875,-0.0008652494288980961,-0.002163287717849016,-0.0005118083208799362
1690821939027158000,2.003157958984375,0.0007859105244278908,0.00003515183925628662,-0.0005554836243391037
1690821939037198000,2.013197998046875,-0.0003545754589140415,-0.00046978401951491833,-0.000680677592754364
1690821939047238100,2.023238037109375,-0.0004794779233634472,-0.0010351731907576323,0.001118287444114685
1690821939057279200,2.033279296875,0.00013916101306676865,-0.0016149869188666344,-0.0029144007712602615
1690821939067349000,2.043348876953125,-0.0005769627168774605,0.00031314173247665167,0.001228146255016327
1690821939077390000,2.05339013671875,0.0007708226330578327,-0.001162536209449172,-0.0015132129192352295
1690821939087430000,2.063429931640625,0.00029757898300886154,-0.00030792783945798874,-0.001286577433347702
1690821939097470000,2.073469970703125,-0.0006571509875357151,-0.0013584843836724758,-0.0010128170251846313
1690821939107511000,2.083510986328125,-0.0017620963044464588,-0.0002048029564321041,-0.0011297296732664108
1690821939117551000,2.093551025390625,-0.0016472134739160538,-0.002671442460268736,-0.0016518272459506989
1690821939127591000,2.1035908203125,-0.0005800849758088589,0.0007882699137553573,0.0007170550525188446
1690821939137631000,2.113630859375,-0.0006342926062643528,-0.0007248902693390846,-0.0006572436541318893
1690821939147672000,2.123672119140625,-0.0008047348819673061,-0.0002641633618623018,0.0006034970283508301
1690821939157712000,2.1337119140625,-0.0008084634318947792,-0.0013521036598831415,-0.0014204569160938263
1690821939167752000,2.143751953125,-0.00010139402002096176,-0.0011385183315724134,-0.0015850402414798737
1690821939177793000,2.15379296875,-0.0006831637583673,0.0005781579529866576,-0.0009139683097600937
1690821939187833000,2.1638330078125,-0.0003286967985332012,-0.0004668664187192917,-0.0013461988419294357
1690821939197873200,2.173873046875,0.0004295320250093937,0.002024962566792965,-0.0008422955870628357
1690821939207913000,2.183912841796875,-0.0005619628354907036,-0.0010648369789123535,-0.0014702696353197098
1690821939217954000,2.1939541015625,0.0018358335364609957,-0.0009421755094081163,-0.00014032423496246338
1690821939227993900,2.203993896484375,0.0011679127346724272,-0.003068177029490471,0.0014107022434473038
1690821939238034000,2.214033935546875,0.000620539765805006,-0.0011804462410509586,-0.001230049878358841
1690821939248075000,2.224074951171875,-0.0005139671266078949,0.0010278468253090978,-0.000910470262169838
1690821939258115000,2.234114990234375,-0.0006651231087744236,0.0015763675328344107,0.0007913652807474136
1690821939268186000,2.24418603515625,0.0002901526167988777,0.0014394810423254967,-0.00010958127677440643
1690821939278226000,2.254225830078125,0.00034227874130010605,0.001441682456061244,0.0004743654280900955
1690821939288266000,2.264265869140625,-0.0010462934151291847,0.00047681923024356365,0.00005065649747848511
1690821939298306000,2.27430615234375,-0.0003010290674865246,0.0017146270256489515,0.0012484081089496613
1690821939308347000,2.284346923828125,-0.0013710870407521725,-0.002663343446329236,-0.00016706250607967377
1690821939318387000,2.294386962890625,-0.0018698358908295631,0.00010178331285715103,-0.00018848665058612823
1690821939328427000,2.304427001953125,-0.0003513013944029808,0.0011438782094046474,0.0001153796911239624
1690821939338468000,2.314468017578125,-0.0016959486529231071,0.0004312258679419756,0.00031432323157787323
1690821939348508200,2.324508056640625,-0.0015225769020617008,0.00012975605204701424,-0.0011690575629472733
1690821939358548000,2.3345478515625,0.0005308324471116066,-0.00010722898878157139,-0.0010041575878858566
1690821939368588000,2.344588134765625,-0.00011631567031145096,0.0003830589121207595,-0.0013972409069538116
1690821939378628900,2.35462890625,0.00014672614634037018,0.0003564506769180298,0.00035743042826652527
1690821939388669000,2.3646689453125,-0.0006708642467856407,0.0002525872550904751,0.0002346578985452652
1690821939398709000,2.374708984375,0.00014593126252293587,-0.00024111289530992508,0.0013847500085830688
1690821939408757200,2.38475732421875,0.00002236058935523033,-0.0009308718144893646,0.0007663629949092865
1690821939418797300,2.39479736328125,-0.0003561940975487232,-0.002089784713461995,-0.0006679724901914597
1690821939428837000,2.404837158203125,0.00007870001718401909,0.0006447491468861699,0.0013997051864862442
1690821939438877200,2.414877197265625,0.0011938835959881544,-0.0022364186588674784,-0.001043042168021202
1690821939448918000,2.42491796875,-0.0025036493316292763,0.000046176603063941,-0.0004627387970685959
1690821939458989000,2.434989013671875,0.00040949229151010513,0.00090372608974576,0.00028010644018650055
1690821939469029000,2.445029052734375,0.0005841953679919243,-0.0010497025214135647,0.0025469884276390076
1690821939479069200,2.455069091796875,0.0008768616244196892,0.00020610494539141655,0.0007581934332847595
1690821939489109000,2.46510888671875,0.0002683294005692005,0.0006101065082475543,-0.0005685929208993912
1690821939499150000,2.475150146484375,-0.0005335132591426373,-0.0012810183688998222,0.0009189825505018234
1690821939509190100,2.485190185546875,-0.0006855796091258526,-0.0011329466942697763,-0.00040061213076114655
1690821939519230200,2.495230224609375,-0.0016890950500965118,0.000030223745852708817,0.000019917264580726624
1690821939529270300,2.505270263671875,-0.0003721616230905056,-0.001444901106879115,-0.00035931728780269623
1690821939539311000,2.51531103515625,-0.0003941352479159832,-0.00026273494586348534,-0.0018717572093009949
1690821939549351200,2.52535107421875,0.000053009483963251114,0.0009183769579976797,-0.001700516790151596
1690821939559391000,2.535390869140625,-0.0009353440254926682,0.0010484555969014764,0.0005756597965955734
1690821939569432000,2.54543212890625,0.0009584301151335239,0.0004934527678415179,-0.00005204789340496063
1690821939579472100,2.55547216796875,-0.0002933060750365257,-0.0007808101363480091,-0.00041963718831539154
1690821939589512200,2.56551220703125,-0.00035855360329151154,-0.0022434182465076447,0.0002211201936006546
1690821939599552300,2.57555224609375,-0.001343458890914917,0.0004282514564692974,-0.0006027091294527054
1690821939609593000,2.585593017578125,-0.00015462376177310944,-0.0013323642779141665,-0.00048739463090896606
1690821939619633200,2.595633056640625,0.00018120603635907173,0.0006684281397610903,-0.0018992088735103607
1690821939629673200,2.605673095703125,-0.0007301280274987221,-0.0004801931791007519,-0.0009966623038053513
1690821939639714300,2.61571435546875,-0.00007977476343512535,0.0012052255915477872,0.0009837374091148376
1690821939649754000,2.625754150390625,-0.0005351752042770386,-0.0012563341297209263,0.00010489299893379211
1690821939659825200,2.6358251953125,-0.00046557094901800156,-0.00037647527642548084,0.001332361251115799
1690821939669865200,2.645865234375,0.00034296466037631035,-0.0026486844290047884,-0.0009984374046325684
1690821939679905300,2.6559052734375,-0.00033209286630153656,-0.001408543437719345,-0.0002738870680332184
1690821939689946000,2.665946044921875,-0.0006261058151721954,-0.000476703280583024,0.0003767218440771103
1690821939699986200,2.675986083984375,0.00009270571172237396,0.0010953303426504135,-0.00021549686789512634
1690821939710026000,2.68602587890625,0.0009345309808850288,-0.0008546363096684217,0.00023324601352214813
1690821939720066000,2.696066162109375,0.001258019357919693,-0.0022728657349944115,0.000979159027338028
1690821939730107100,2.706107177734375,0.0016084914095699787,0.00006885197944939137,0.0000622328370809555
1690821939740147200,2.716147216796875,-0.0011124173179268837,0.00014723488129675388,0.0000939052551984787
1690821939750187300,2.726187255859375,-0.0000586044043302536,-0.0005324038211256266,0.001253180205821991
1690821939760228000,2.73622802734375,0.0003524436615407467,0.0009286255808547139,0.0014461111277341843
1690821939770268200,2.74626806640625,0.00019345292821526527,-0.0005241287872195244,-0.0009280964732170105
1690821939780308200,2.75630810546875,0.00013232091441750526,-0.0013364758342504501,0.0009304899722337723
1690821939790348000,2.76634814453125,-0.0017009987495839596,0.0015847457107156515,0.0010695066303014755
1690821939800389000,2.77638916015625,0.00041473889723420143,0.0015350785106420517,-0.0008452478796243668
1690821939810429200,2.78642919921875,-0.0017770426347851753,-0.001480152364820242,-0.0002468358725309372
1690821939820469200,2.79646923828125,-0.0009849932976067066,-0.0020701950415968895,-0.0007908493280410767
1690821939830510000,2.806510009765625,0.0012344848364591599,0.00043770356569439173,0.00005843117833137512
1690821939840550100,2.816550048828125,-0.0007103760726749897,0.00004161009564995766,0.0012642014771699905
1690821939850621200,2.82662109375,-0.0006685643456876278,0.0009457533014938235,-0.0016687382012605667
1690821939860661000,2.836660888671875,-0.0003821989521384239,0.00005087931640446186,0.00023939460515975952
1690821939870701000,2.846701171875,-0.0003379904665052891,-0.001600280636921525,-0.000494837760925293
1690821939880741000,2.8567412109375,0.0003109644167125225,0.001314886612817645,-0.00023836083710193634
1690821939890782200,2.8667822265625,0.0010587801225483418,-0.0025749264750629663,-0.0018945802003145218
1690821939900822300,2.876822265625,-0.0006387806497514248,0.0004960197256878018,0.0006643906235694885
1690821939910862000,2.886862060546875,-0.0004768604412674904,-0.0009910892695188522,-0.0000053942203521728516
1690821939920903200,2.896903076171875,0.0007080552168190479,-0.00021533318795263767,-0.00038865581154823303
1690821939930943200,2.906943115234375,-0.00023736711591482162,-0.0010595552157610655,0.0017341487109661102
1690821939940983000,2.916983154296875,-0.00010106246918439865,0.0001992965117096901,0.0008635912090539932
1690821939951023000,2.927023193359375,0.00019907578825950623,0.0013380642049014568,0.0002870168536901474
1690821939961064200,2.937064208984375,-0.00260721892118454,-0.0006404304876923561,0.00000865943729877472
1690821939971104300,2.947104248046875,-0.0007651103660464287,0.0005697098094969988,0.002672620117664337
1690821939981144000,2.95714404296875,0.0008956585079431534,0.0001160413958132267,0.0005822703242301941
1690821939991185200,2.96718505859375,-0.0011922596022486687,0.0010055372258648276,0.0010187625885009766
1690821940001225200,2.97722509765625,-0.0004066457040607929,0.0005701463669538498,-0.0005965027958154678
1690821940011265000,2.98726513671875,-0.0003994554281234741,-0.0004727474879473448,-0.000007944181561470032
1690821940021305000,2.99730517578125,-0.00011861557140946388,0.0004757554270327091,0.00029874034225940704
1690821940031346200,3.00734619140625,0.0003232029266655445,0.00009146123193204403,-0.0011127348989248276
1690821940041386200,3.01738623046875,0.002439097734168172,0.0006846314063295722,0.0015236884355545044
1690821940051457300,3.027457275390625,-0.0007204767316579819,-0.0008024778217077255,-0.00030670128762722015
1690821940061497000,3.0374970703125,-0.00011239666491746902,-0.0011950221378356218,-0.0008516963571310043
1690821940071537000,3.047536865234375,-0.00017205160111188889,-0.0014088740572333336,-0.0004133395850658417
1690821940081578200,3.057578125,0.0010623703710734844,0.0004931126022711396,-0.0005610175430774689
1690821940091618000,3.0676181640625,-0.000666819978505373,0.0012238840572535992,-0.0016648992896080017
1690821940101658000,3.077658203125,0.0002473173663020134,-0.0005957018584012985,-0.0007211659103631973
1690821940111698200,3.0876982421875,0.0008188318461179733,-0.0020202265586704016,-0.0001925285905599594
1690821940121739300,3.0977392578125,-0.0005989423952996731,-0.0003805162850767374,-0.001039436087012291
1690821940131779000,3.107779052734375,-0.0013635363429784775,-0.0012039656285196543,-0.0014245286583900452
1690821940141819100,3.117819091796875,0.00020243041217327118,0.002794533269479871,0.001394404098391533
1690821940151860200,3.127860107421875,-0.0006636297330260277,-0.0004286905750632286,0.0012644417583942413
1690821940161900000,3.137900146484375,-0.00048546213656663895,0.0012138409074395895,-0.0003738291561603546
1690821940171940000,3.147940185546875,0.0003030998632311821,0.00004418054595589638,0.000408075749874115
1690821940181980200,3.157980224609375,-0.00011054147034883499,-0.00007123686373233795,0.00009506382048130035
1690821940192021200,3.168021240234375,0.0012996022123843431,-0.00023076031357049942,-0.0000061355531215667725
1690821940202061000,3.17806103515625,-0.001706327311694622,-0.0005458933301270008,0.0006319023668766022
1690821940212101000,3.18810107421875,0.0007818639278411865,0.002311412012204528,0.001061735674738884
1690821940222142200,3.19814208984375,-0.0015994030982255936,-0.000745715806260705,-0.0016041547060012817
1690821940232182000,3.20818212890625,0.0010075652971863747,-0.00008099083788692951,-0.0014161355793476105
1690821940242253000,3.218253173828125,0.000946462620049715,0.000011447351425886154,-0.0000015869736671447754
1690821940252293000,3.228293212890625,0.00016775447875261307,-0.0016634147614240646,-0.0005246326327323914
1690821940262333200,3.238333251953125,0.0011511396151036024,-0.001265532337129116,0.000405874103307724
1690821940272374300,3.248374267578125,0.0001292848028242588,0.0005717824678868055,0.0013779271394014359
1690821940282414000,3.2584140625,0.0009295032359659672,-0.0026657353155314922,0.0009370781481266022
1690821940292454100,3.2684541015625,0.00002615898847579956,0.0009878554847091436,0.00005397386848926544
1690821940302494000,3.278493896484375,-0.002849474549293518,-0.0023664601612836123,-0.0013137217611074448
1690821940312535000,3.28853515625,0.0007274174131453037,0.00043198931962251663,0.0010751336812973022
1690821940322575000,3.2985751953125,-0.0017240936867892742,-0.0012307683937251568,0.00038192421197891235
1690821940332615200,3.308615234375,-0.0005411175079643726,0.00046699680387973785,0.0009723473340272903
1690821940342656300,3.31865625,-0.00026602763682603836,-0.0009745149873197079,-0.0010299868881702423
1690821940352696000,3.328696044921875,0.0013015088625252247,-0.0024999736342579126,-0.000915205106139183
1690821940362736000,3.338736083984375,-0.00021492736414074898,0.0026957958471029997,-0.0002969987690448761
1690821940372776000,3.34877587890625,-0.0005534151569008827,-0.0002672371920198202,-0.00003547780215740204
1690821940382817000,3.358817138671875,-0.00005440320819616318,0.00021671736612915993,-0.0013147499412298203
1690821940392857000,3.368857177734375,-0.00024375366047024727,-0.00038755382411181927,0.000376356765627861
1690821940402897200,3.378897216796875,0.0010092626325786114,0.0005538198165595531,-0.00044305063784122467
1690821940412942800,3.38894287109375,-0.0016451100818812847,0.0014273367123678327,-0.0018798261880874634
1690821940422984000,3.39898388671875,0.0012093386612832546,0.0011978407856076956,-0.00021778233349323273
1690821940433024000,3.40902392578125,-0.0011142692528665066,-0.0002732893917709589,0.001158272847533226
1690821940443095000,3.419094970703125,-0.0008248882368206978,-0.0013737361878156662,-0.0007322747260332108
1690821940453134800,3.429134765625,0.0012126965448260307,-0.00102885696105659,-0.0007426608353853226
1690821940463175000,3.4391748046875,-0.002346342895179987,0.001113004400394857,0.00029281526803970337
1690821940473215700,3.4492158203125,-0.000015278346836566925,-0.0008209832012653351,-0.00017883069813251495
1690821940483255800,3.459255859375,0.0011145533062517643,0.00115207361523062,0.00018512271344661713
1690821940493295900,3.4692958984375,-0.000013828277587890625,-0.001245570369064808,0.00034517794847488403
1690821940503337000,3.4793369140625,-0.0002360721118748188,-0.0008101628627628088,-0.0000508725643157959
1690821940513377000,3.489376953125,0.000022254418581724167,-0.0002996348775923252,0.00006284378468990326
1690821940523417000,3.4994169921875,-0.00041141174733638763,-0.0008005374111235142,-0.001612156629562378
1690821940533457000,3.509456787109375,0.00044372910633683205,0.0007313127862289548,0.00019293464720249176
1690821940543497700,3.519497802734375,-0.0007232381030917168,-0.0012698965147137642,-0.0006386395543813705
1690821940553537800,3.529537841796875,-0.0005075223743915558,0.00011441460810601711,0.0021845772862434387
1690821940563577900,3.539577880859375,-0.0002525928430259228,-0.0002999221906065941,-0.0005450807511806488
1690821940573619000,3.549618896484375,0.000026506371796131134,0.00015388056635856628,-0.00020685791969299316
1690821940583659000,3.559658935546875,-0.0015848777256906033,0.0000857075210660696,-0.0011397358030080795
1690821940593699000,3.569698974609375,0.00045963097363710403,-0.000013095792382955551,0.0004978422075510025
1690821940603739000,3.57973876953125,0.0003656800836324692,-0.00013695331290364265,0.001357661560177803
1690821940613779700,3.58977978515625,0.0013273474760353565,-0.0008429572917521,-0.00019709207117557526
1690821940623819800,3.59981982421875,0.001887487480416894,0.0020233425311744213,0.0011921413242816925
1690821940633890800,3.609890869140625,0.00019851094111800194,-0.0007868250831961632,-0.0014494489878416061
1690821940643931000,3.619930908203125,-0.0008269809186458588,0.0014827370177954435,0.00007860362529754639
1690821940653971000,3.629970947265625,0.00029234541580080986,0.0019048480316996574,-0.0002572201192378998
1690821940664012000,3.640011962890625,0.0016608070582151413,0.00046677165664732456,0.0010196603834629059
1690821940674052000,3.650052001953125,-0.0023618978448212147,-0.00047865044325590134,0.0010087396949529648
1690821940684092000,3.660091796875,-0.0002536484971642494,0.00012911646626889706,-0.0005650743842124939
1690821940694132000,3.670132080078125,-0.0027610142715275288,0.0000944952480494976,-0.000577857717871666
1690821940704172800,3.6801728515625,0.0012059707660228014,-0.00027273502200841904,-0.0011772755533456802
1690821940714212900,3.690212890625,-0.001733892597258091,-0.000551834236830473,-0.0006377194076776505
1690821940724253000,3.7002529296875,0.0013350567314773798,-0.0012947339564561844,0.0019373837858438492
1690821940734294000,3.7102939453125,-0.0006615151651203632,-0.00116264121606946,0.00035839714109897614
1690821940744334000,3.720333984375,0.0013373086694628,0.000518017215654254,-0.0001999586820602417
1690821940754374000,3.730373779296875,-0.00025552790611982346,0.0017340166959911585,0.0002916604280471802
1690821940764414000,3.7404140625,-0.00035158731043338776,0.00124439038336277,0.000016804784536361694
1690821940774454800,3.750454833984375,-0.0005191005766391754,0.00008138781413435936,0.002007249742746353
1690821940784494800,3.760494873046875,-0.00045629264786839485,0.0018056887201964855,-0.00010355561971664429
1690821940794535000,3.770534912109375,0.00191977946087718,0.0015497589483857155,0.00020244158804416656
1690821940804576000,3.780575927734375,-0.00014391401782631874,-0.0003781239502131939,0.0004228465259075165
1690821940814616000,3.790615966796875,-0.000411295797675848,-0.0006636148318648338,-0.0012807771563529968
1690821940824687000,3.80068701171875,-0.0012807822786271572,-0.00028300262056291103,-0.0013624820858240128
1690821940834727000,3.810726806640625,-0.0003356263041496277,-0.000961043406277895,-0.000030368566513061523
1690821940844767000,3.82076708984375,0.0015709882136434317,0.002066057873889804,0.0014515239745378494
1690821940854807800,3.830807861328125,-0.00044768769294023514,0.0005658991867676377,-0.00017433613538742065
1690821940864848000,3.840847900390625,-0.0008180728182196617,0.001104119117371738,0.0005471669137477875
1690821940874888000,3.850887939453125,-0.0007160739041864872,0.00035843392834067345,-0.001553267240524292
1690821940884928000,3.860927978515625,0.0009876131080091,-0.0004244595766067505,-0.00042483769357204437
1690821940894969000,3.870968994140625,-0.0006118812598288059,0.00023467279970645905,0.00041538849472999573
1690821940905009000,3.8810087890625,0.001367434160783887,0.00009124935604631901,-0.00012666545808315277
1690821940915049000,3.891049072265625,-0.0002123531885445118,-0.0008453843183815479,-0.0007346644997596741
1690821940925088800,3.9010888671875,0.0011169379577040672,0.00023280992172658443,0.00006047077476978302
1690821940935129900,3.9111298828125,-0.0001307530328631401,0.0001811445690691471,0.00021813064813613892
1690821940945170000,3.921169921875,0.0009347088634967804,0.0004087272100150585,-0.00013764947652816772
1690821940955210000,3.9312099609375,0.000258532352745533,0.0011525481240823865,0.0013902056962251663
1690821940965251000,3.9412509765625,0.000148130115121603,0.0006560067413374782,-0.00017147324979305267
1690821940975291000,3.951290771484375,-0.0006132675334811211,0.0011367072584107518,0.0012498553842306137
1690821940985331000,3.9613310546875,0.0012554521672427654,-0.001015049871057272,-0.00014678947627544403
1690821940995370800,3.971370849609375,-0.0013629677705466747,-0.0012611260171979666,-0.001303667202591896
1690821941005411800,3.981411865234375,-0.0012623444199562073,-0.00029174261726439,0.0012676548212766647
1690821941015452000,3.991451904296875,0.0003185076639056206,0.0013314539100974798,-0.0013414453715085983
1690821941025523000,4.00152294921875,-0.0003949841484427452,-0.0002691657282412052,0.0024608392268419266
1690821941035563000,4.01156298828125,-0.0011625071056187153,0.0002421610988676548,0.0002299100160598755
1690821941045602800,4.021602783203125,0.0004892353899776936,0.0016807965002954006,0.0009580366313457489
1690821941055644000,4.031643798828125,-0.00016403803601861,-0.0013725175522267818,-0.0013549178838729858
1690821941065684000,4.04168408203125,0.0008102566935122013,-0.00033036479726433754,0.00006993860006332397
1690821941075723800,4.051723876953125,0.000874172430485487,-0.00001744343899190426,-0.0015053227543830872
1690821941085764900,4.061764892578125,0.00033247005194425583,0.00016891886480152607,-0.0026690196245908737
1690821941095805000,4.071804931640625,-0.0003397120162844658,0.0002464170102030039,0.00016431882977485657
1690821941105845000,4.081844970703125,-0.0016554445028305054,-0.00010638218373060226,-0.0002722274512052536
1690821941115884800,4.091884765625,0.000931017566472292,0.000873128417879343,0.0012510996311903
1690821941125926000,4.10192578125,-0.0011561340652406216,0.0008818332571536303,0.00048058852553367615
1690821941135966000,4.111966064453125,0.0001621306873857975,-0.00041991984471678734,0.0013120267540216446
1690821941146005800,4.122005859375,-0.001248630229383707,-0.001238726545125246,-0.00005433522164821625
1690821941156046800,4.132046875,0.00018974347040057182,0.0007823463529348373,0.001905485987663269
1690821941166087000,4.1420869140625,-0.0003528781235218048,-0.0000688508152961731,0.0011413563042879105
1690821941176127000,4.152126953125,-0.0005283807404339314,-0.0003151930868625641,-0.00084669329226017
1690821941186167000,4.1621669921875,0.0002477504312992096,-0.00026669888757169247,-0.0016892235726118088
1690821941196208000,4.1722080078125,0.00009488500654697418,0.0015394571237266064,-0.0017249099910259247
1690821941206247700,4.18224755859375,0.00014347396790981293,-0.00019967462867498398,-0.0013809576630592346
1690821941216318700,4.192318603515625,0.0007022055797278881,-0.0001346934586763382,0.0008233413100242615
1690821941226358800,4.20235888671875,0.0006989035755395889,0.00019095372408628464,0.002018136903643608
1690821941236398800,4.21239892578125,0.0013564378023147583,0.0004362307954579592,0.0003747008740901947
1690821941246440000,4.22243994140625,-0.0008580232970416546,0.0005437416257336736,0.0002012830227613449
1690821941256480000,4.23247998046875,0.0012266989797353745,-0.0011942372657358646,-0.0008205734193325043
1690821941266519800,4.242519775390625,0.00039943866431713104,0.0012247113045305014,-0.0004220008850097656
1690821941276560000,4.252559814453125,0.000026063527911901474,-0.0008693323470652103,-0.0010829977691173553
1690821941286600700,4.2626005859375,-0.0005578561685979366,-0.0011299478355795145,0.0006135422736406326
1690821941296640800,4.272640869140625,0.00015267496928572655,-0.00034271739423274994,0.0009256638586521149
1690821941306680800,4.282680908203125,0.0008568167686462402,-0.00016710441559553146,-0.0014855563640594482
1690821941316722000,4.292721923828125,0.00016759056597948074,0.0003929582890123129,0.000536581501364708
1690821941326762000,4.302761962890625,-0.00014721322804689407,0.0005177806597203016,-0.0024961717426776886
1690821941336802000,4.312802001953125,0.0007646530866622925,0.0002037941012531519,0.0010125432163476944
1690821941346841900,4.322841796875,0.0008513159118592739,0.0004079136997461319,0.001585453748703003
1690821941356882700,4.332882568359375,-0.0005620238371193409,0.0011908829910680652,-0.0008329618722200394
1690821941366922800,4.3429228515625,-0.0017086141742765903,-0.0023004114627838135,0.0007695350795984268
1690821941376962800,4.352962890625,-0.0009016767144203186,0.0006442457670345902,-0.0012803003191947937
1690821941387004000,4.36300390625,-0.00007145386189222336,0.0010294391540810466,-0.00011436454951763153
1690821941397044000,4.3730439453125,-0.00027598487213253975,0.0014408975839614868,-0.002701094374060631
1690821941407090400,4.38309033203125,0.0014320211485028267,-0.0005090010818094015,-0.0010599754750728607
1690821941417130500,4.393130615234375,0.00045304326340556145,-0.0007960896473377943,-0.00011135637760162354
1690821941427170300,4.40317041015625,-0.0007251882925629616,-0.0014977662358433008,0.0010351072996854782
1690821941437210400,4.41321044921875,0.0014269121456891298,-0.000495085958391428,-0.00015825405716896057
1690821941447251200,4.423251220703125,0.0003674621693789959,-0.00015458464622497559,-0.001749897375702858
1690821941457291300,4.433291259765625,-0.0014733150601387024,0.00013170531019568443,-0.0011336412280797958
1690821941467331300,4.443331298828125,-0.0011806567199528217,-0.0005092667415738106,0.0012740250676870346
1690821941477372400,4.453372314453125,-0.00025813793763518333,-0.00010979245416820049,-0.0014280173927545547
1690821941487412500,4.46341259765625,0.001234918599948287,0.0002456007059663534,-0.00025309622287750244
1690821941497452500,4.47345263671875,0.00046073785051703453,0.0010248415637761354,-0.0007633566856384277
1690821941507492400,4.483492431640625,0.0008327015675604343,-0.0006952567491680384,-0.000048922374844551086
1690821941517533200,4.493533203125,-0.0005742460489273071,-0.0007783474866300821,-0.0012715794146060944
1690821941527573200,4.5035732421875,0.0007994230836629868,-0.001597345806658268,0.0003287754952907562
1690821941537613300,4.51361328125,0.000054004136472940445,0.0021105732303112745,0.00008962303400039673
1690821941547654400,4.523654296875,0.001296596135944128,0.00035398523323237896,0.0003897324204444885
1690821941557694500,4.533694580078125,-0.00017346860840916634,0.0005393413593992591,0.00027388520538806915
1690821941567734500,4.543734619140625,-0.00014922628179192543,0.0024802822154015303,0.0017593633383512497
1690821941577774300,4.5537744140625,-0.000043765176087617874,0.0022789472714066505,0.000043489038944244385
1690821941587815200,4.563815185546875,-0.001524636521935463,-0.000032585812732577324,0.0004398748278617859
1690821941597886200,4.57388623046875,-0.0005557783879339695,-0.0014286148361861706,-0.00010820291936397552
1690821941607926300,4.58392626953125,0.0001990804448723793,-0.00043170806020498276,-0.00026795268058776855
1690821941617966300,4.59396630859375,0.0009066821075975895,-0.0007691306527704,0.0006074272096157074
1690821941628006400,4.60400634765625,-0.0006565898656845093,-0.00010632886551320553,0.0013392101973295212
1690821941638047500,4.614047607421875,0.0005575455725193024,0.00012137135490775108,0.0008657015860080719
1690821941648087600,4.624087646484375,0.0014870844315737486,-0.0006971284747123718,0.0009875185787677765
1690821941658127400,4.63412744140625,0.0009837467223405838,-0.0005626389756798744,0.0002085454761981964
1690821941668168200,4.644168212890625,-0.0006236420013010502,0.0013505012029781938,0.00007376261055469513
1690821941678208300,4.654208251953125,0.0009308452717959881,0.000997632392682135,0.0001038573682308197
1690821941688248300,4.664248291015625,0.001144136767834425,-0.0015425942838191986,0.0000918712466955185
1690821941698288400,4.674288330078125,0.00006156181916594505,0.000674753449857235,-0.00011612288653850555
1690821941708329500,4.68432958984375,0.00004629604518413544,0.0004368030931800604,0.003663310781121254
1690821941718369500,4.69436962890625,0.0003901100717484951,0.000418161042034626,-0.0008235815912485123
1690821941728409300,4.704409423828125,0.0004209345206618309,-0.0013153478503227234,0.000011444091796875
1690821941738449400,4.714449462890625,-0.001665918156504631,-0.00032758130691945553,0.002498568966984749
1690821941748490200,4.724490234375,-0.0006376998499035835,0.0015980671159923077,-0.0005230028182268143
1690821941758530300,4.7345302734375,0.0009324997663497925,0.00022147898562252522,0.0012935400009155273
1690821941768570400,4.7445703125,0.0018740193918347359,0.00034870789386332035,0.00045920349657535553
1690821941778611500,4.754611572265625,0.0017147623002529144,-0.00047181197442114353,-0.0007264353334903717
1690821941788681200,4.76468115234375,-0.0003129858523607254,0.0006318929372355342,-0.00016099028289318085
1690821941798722600,4.77472265625,-0.00042031146585941315,0.00024040834978222847,0.0008241124451160431
1690821941808762400,4.784762451171875,0.0010538725182414055,-0.002280683722347021,-0.00004486367106437683
1690821941818802400,4.794802490234375,-0.0006060758605599403,-0.0008689418900758028,0.0014433115720748901
1690821941828843300,4.80484326171875,-0.0016782497987151146,0.0003986414521932602,0.00001082010567188263
1690821941838883300,4.81488330078125,-0.0005051274783909321,0.001016761059872806,0.0005067009478807449
1690821941848923400,4.82492333984375,-0.000822962261736393,-0.001190184149891138,0.0007605366408824921
1690821941858963500,4.83496337890625,-0.00044905440881848335,-0.0002487567253410816,0.0015293899923563004
1690821941869004500,4.845004638671875,0.00043950043618679047,-0.0006844033487141132,-0.000380881130695343
1690821941879044400,4.85504443359375,-0.00006650015711784363,-0.0004654915537685156,-0.0007654428482055664
1690821941889084400,4.86508447265625,0.0005368078127503395,-0.0009528112132102251,0.0008260216563940048
1690821941899125200,4.875125244140625,-0.0005127438344061375,-0.0018572206608951092,0.001345871016383171
1690821941909165300,4.885165283203125,0.0010984628461301327,1.3830140233039856e-7,-0.00005713850259780884
1690821941919205400,4.895205322265625,-0.00011034589260816574,-0.0004885515663772821,-0.0003439616411924362
1690821941929245400,4.905245361328125,0.0002606823109090328,0.00044581200927495956,0.00007333233952522278
1690821941939286500,4.91528662109375,0.0002867812290787697,-0.000594152370467782,0.0010264776647090912
1690821941949326300,4.925326416015625,-0.0009478013962507248,-0.0008125598542392254,-0.0010895170271396637
1690821941959366400,4.935366455078125,-0.0015824325382709503,-0.0011073718778789043,0.00019599124789237976
1690821941969407200,4.9454072265625,0.0003587547689676285,-0.0006575679872184992,0.0004267636686563492
1690821941979447300,4.955447265625,0.0005632857792079449,-0.00014224625192582607,-0.0013953708112239838
1690821941989518300,4.965518310546875,-0.0005310503765940666,-0.0011094307992607355,0.0000282973051071167
1690821941999558400,4.975558349609375,-0.000966743566095829,-0.00022819079458713531,-0.0026111621409654617
1690821942009598500,4.985598388671875,0.0008312985301017761,-0.000999873736873269,-0.00032614730298519135
1690821942019638300,4.99563818359375,0.0007226415909826756,0.0014848554274067283,0.0006986372172832489
1690821942029679400,5.005679443359375,-0.0004980769008398056,0.00042680115438997746,-0.0003552846610546112
1690821942039719400,5.015719482421875,-0.0005761077627539635,-0.001977234613150358,0.0004287511110305786
1690821942049759500,5.025759521484375,-0.0005425070412456989,-0.0007355108391493559,0.000036096200346946716
1690821942059800300,5.03580029296875,0.0017818999476730824,-0.0003213894087821245,-0.00040039606392383575
1690821942069840400,5.04584033203125,0.0012263967655599117,0.0005968812620267272,-0.00045276060700416565
1690821942079880400,5.05588037109375,0.0013789958320558071,-0.00007210485637187958,-0.0010282695293426514
1690821942089920300,5.065920166015625,0.0009975871071219444,0.00020086555741727352,0.001271141692996025
1690821942099961300,5.07596142578125,0.0009373999200761318,-0.0011522865388542414,0.0009957700967788696
1690821942110001400,5.08600146484375,0.0007495884783565998,-0.000941314734518528,-0.000375259667634964
1690821942120041500,5.09604150390625,0.0006553125567734241,-0.001184727530926466,0.0008804202079772949
1690821942130082300,5.106082275390625,0.0008229091763496399,-0.0013857169542461634,-0.0009705051779747009
1690821942140122400,5.116122314453125,-0.0003805733285844326,0.0001844828948378563,-0.0003268197178840637
1690821942150162400,5.126162353515625,-0.0005093701183795929,-0.0014090118929743767,-0.00020609982311725616
1690821942160202500,5.136202392578125,0.0013766807969659567,-0.0005219129379838705,-0.0006138291209936142
1690821942170243600,5.14624365234375,-0.00007880106568336487,0.0005476715741679072,-0.0032459627836942673
1690821942180314400,5.156314453125,-0.0009872056543827057,0.00009653205052018166,-0.0009633675217628479
1690821942190354400,5.1663544921875,-0.0015144874341785908,0.0010429630056023598,0.001963173970580101
1690821942200394500,5.17639453125,-0.0012151477858424187,-0.0006247083656489849,-0.0007551144808530807
1690821942210434600,5.1864345703125,0.0019128038547933102,-0.0005395100452005863,0.00025360286235809326
1690821942220475400,5.196475341796875,0.00012688804417848587,0.00033240881748497486,0.00016252323985099792
1690821942230515500,5.206515380859375,0.00025319308042526245,-0.0023515343200415373,0.000020449981093406677
1690821942240555300,5.21655517578125,-0.00007570767775177956,0.0006634301971644163,0.0013222023844718933
1690821942250595300,5.22659521484375,0.0007430380210280418,0.003802973311394453,0.0014584381133317947
1690821942260636400,5.236636474609375,0.0010325233452022076,0.00013287109322845936,-0.00027980655431747437
1690821942270676500,5.246676513671875,-0.0003779553808271885,-0.0007176809012889862,-0.00014050118625164032
1690821942280716500,5.256716552734375,0.0003613377921283245,0.0009894053218886256,0.00015377812087535858
1690821942290757400,5.26675732421875,0.0007600951939821243,-0.00004364573396742344,-0.0011420007795095444
1690821942300797400,5.27679736328125,0.00032759783789515495,0.0006711466703563929,0.001180274412035942
1690821942310837200,5.286837158203125,0.0006508985534310341,0.002193458378314972,0.0014906860888004303
1690821942320877300,5.296877197265625,0.0012647570110857487,0.00019315793178975582,0.0002243518829345703
1690821942330918400,5.30691845703125,0.0007119057700037956,-0.0009245018009096384,-0.0005335733294487
1690821942340958500,5.31695849609375,0.00003999052569270134,-0.0008688417728990316,0.00040945224463939667
1690821942350998500,5.32699853515625,0.00044501060619950294,0.0005847571883350611,0.00014246255159378052
1690821942361039400,5.337039306640625,0.0011981525458395481,-0.00020646792836487293,0.0010516662150621414
1690821942371109400,5.347109375,0.0003414028324186802,0.0010431979317218065,0.0005376413464546204
1690821942381150500,5.357150390625,-0.000700692180544138,-0.000060149701312184334,-0.0008128471672534943
1690821942391190300,5.367190185546875,0.0008170339278876781,-0.0003078074660152197,-0.0012531429529190063
1690821942401230300,5.377230224609375,-0.0012458506971597672,0.00010205293074250221,-0.001125311478972435
1690821942411263000,5.387262939453125,-0.0002614744007587433,0.00010413443669676781,-0.0008904431015253067
1690821942421303000,5.397302978515625,-0.0012545674107968807,0.0024714183527976274,0.0007431395351886749
1690821942431343000,5.407343017578125,-0.0006554028950631618,-0.00006000790745019913,-0.0002808608114719391
1690821942441383200,5.417383056640625,0.0008961544372141361,0.00021483027376234531,0.001311441883444786
1690821942451424000,5.427424072265625,0.00045118434354662895,0.0011036923388019204,0.001149013638496399
1690821942461463800,5.4374638671875,-0.000601563137024641,0.0007660035043954849,-0.000402277335524559
1690821942471504000,5.44750390625,0.001157399732619524,-0.0007740852888673544,0.0021792445331811905
1690821942481545000,5.457544921875,-0.0006700614467263222,0.00010529044084250927,-0.0019095074385404587
1690821942491585000,5.4675849609375,0.0012677682098001242,-0.0006059310398995876,0.0009750034660100937
1690821942501625000,5.477625,-0.00034664012491703033,0.0007003495702520013,-0.0010990668088197708
1690821942511665200,5.4876650390625,0.00014245044440031052,-0.0008133279625326395,0.0002161748707294464
1690821942521706000,5.4977060546875,0.00051449378952384,0.0027569057419896126,-0.0007686633616685867
1690821942531745800,5.507745849609375,-0.0015788553282618523,-0.0020679417066276073,0.0003186669200658798
1690821942541785900,5.517785888671875,-0.0004952154122292995,0.00044102221727371216,0.0018254835158586502
1690821942551827000,5.527826904296875,0.0005727321840822697,0.0001764032058417797,-0.00027084164321422577
1690821942561897000,5.53789697265625,-0.0007287547923624516,-0.0007663557771593332,0.0015140082687139511
1690821942571938000,5.54793798828125,-0.0008206060156226158,0.000517365406267345,0.0008819866925477982
1690821942581978000,5.55797802734375,0.0003360048867762089,-0.0011883892584592104,0.0004311148077249527
1690821942592018200,5.56801806640625,-0.0013269870541989803,-0.00016936822794377804,0.0010472368448972702
1690821942602058000,5.57805810546875,-0.0005040699616074562,-0.001712669851258397,0.001054428517818451
1690821942612098800,5.588098876953125,-0.0010082963854074478,0.0015787790762260556,0.00020103715360164642
1690821942622139000,5.598138916015625,-0.001496986486017704,-0.000005801673978567123,0.0012141037732362747
1690821942632179000,5.608178955078125,0.0022256060037761927,0.0008288403041660786,0.0009522382169961929
1690821942642220000,5.618219970703125,-0.00011051911860704422,0.0015508233336731791,0.0021309535950422287
1690821942652260000,5.628260009765625,0.0005991095677018166,0.00029057590290904045,0.0008882191032171249
1690821942662300200,5.638300048828125,-0.0017037256620824337,0.0010367935756221414,-0.00037731416523456573
1690821942672340000,5.648340087890625,-0.0011102412827312946,-0.0009305146522819996,-0.0010093394666910172
1690821942682380800,5.658380859375,0.0009462516754865646,-0.0006921617314219475,0.0014793835580348969
1690821942692420900,5.6684208984375,0.00015903078019618988,-0.0007119555957615376,0.0018234644085168839
1690821942702461000,5.6784609375,0.00045384280383586884,0.0011906065046787262,0.0013369042426347733
1690821942712502000,5.688501953125,-0.000006615184247493744,-0.001414954662322998,0.0003335345536470413
1690821942722542000,5.6985419921875,0.0012141780462116003,-0.0004697986878454685,0.002508537843823433
1690821942732582100,5.70858203125,0.0005333474837243557,0.0006442114245146513,0.001406744122505188
1690821942742653000,5.71865283203125,0.0004273536615073681,0.0024301272351294756,0.0024728067219257355
1690821942752693000,5.72869287109375,-0.00016471697017550468,0.00006562890484929085,0.000037360936403274536
1690821942762733000,5.738733154296875,-0.0010313098318874836,-0.001958107342943549,0.0003590695559978485
1690821942772774000,5.74877392578125,-0.00031870603561401367,-0.0021363445557653904,-0.0005507320165634155
1690821942782814000,5.75881396484375,0.00030260952189564705,-0.00048332056030631065,-0.0015371665358543396
1690821942792854000,5.76885400390625,0.000944492407143116,-0.0016065468080341816,-0.00006557255983352661
1690821942802895000,5.77889501953125,-0.0013311784714460373,0.000965800485573709,-0.0014086049050092697
1690821942812935200,5.78893505859375,-0.00047454144805669785,0.0005024843849241734,-0.0018140524625778198
1690821942822975000,5.79897509765625,0.0004791365936398506,0.0002910294570028782,0.0006562955677509308
1690821942833015000,5.80901513671875,0.0012066569179296494,0.00040800287388265133,-0.0012595169246196747
1690821942843055900,5.819055908203125,0.00077415956184268,-0.00016723992303013802,-0.0005346052348613739
1690821942853096000,5.829095947265625,0.0007663797587156296,-0.0019674240611493587,0.00010234303772449493
1690821942863136000,5.839135986328125,0.0013938203919678926,-0.0014318623580038548,-0.0005088523030281067
1690821942873177000,5.849177001953125,0.0000068694353103637695,-0.0010038448963314295,-0.0010764654725790024
1690821942883217200,5.859217041015625,-0.00023388024419546127,0.0014808842679485679,-0.00010521151125431061
1690821942893257000,5.869257080078125,-0.00003651203587651253,-0.0006762042175978422,-0.00035358965396881104
1690821942903297000,5.879297119140625,0.000327541958540678,0.00002287561073899269,0.0012248661369085312
1690821942913337900,5.889337890625,-0.0001650364138185978,-0.00008068745955824852,0.00014010071754455566
1690821942923378000,5.8993779296875,0.0005050147883594036,0.00011958228424191475,0.0008676759898662567
1690821942933449000,5.909448974609375,0.0005338522605597973,0.0009647310944274068,-0.0023084450513124466
1690821942943489000,5.919489013671875,-0.0006368733011186123,0.00042677251622080803,-0.0006080158054828644
1690821942953529000,5.929529052734375,-0.0010862904600799084,-0.0010575680062174797,0.0011439826339483261
1690821942963570200,5.939570068359375,-0.0009816279634833336,-0.0001004277728497982,0.0005572885274887085
1690821942973610000,5.94960986328125,0.0005318918265402317,-0.0017618013080209494,-0.0003845635801553726
1690821942983650000,5.959650146484375,0.0009209797717630863,0.0001831050030887127,0.0012431610375642776
1690821942993691000,5.96969091796875,0.001669394550845027,0.0006243021925911307,0.0006775781512260437
1690821943003731000,5.97973095703125,0.00012822309508919716,0.001017917413264513,0.0005785077810287476
1690821943013771000,5.98977099609375,-0.0004055560566484928,0.001106908661313355,-0.00003594346344470978
1690821943023811000,5.99981103515625,0.001209384761750698,-0.0004981784150004387,0.00044582225382328033
1690821943033852200,6.00985205078125,-0.00005477527156472206,-0.0008415000047534704,-0.0007081888616085052
1690821943043892000,6.01989208984375,0.00014256499707698822,-0.0023019774816930294,0.000365598127245903
1690821943053932000,6.02993212890625,-0.0006883246824145317,0.0019927104003727436,0.0011316556483507156
1690821943063972900,6.039972900390625,-0.0006361263804137707,0.0003623231314122677,-0.00023880600929260254
1690821943074013000,6.050012939453125,0.00039364583790302277,-0.0007253540679812431,0.0006480701267719269
1690821943084053000,6.060052978515625,0.0006234762258827686,-0.0009546524379402399,0.0007138513028621674
1690821943094093000,6.070093017578125,0.002855534665286541,-0.057936254888772964,-0.10499326139688492
1690821943104134100,6.080134033203125,-0.03783863037824631,-0.15583938360214233,-0.1370374858379364
1690821943114174200,6.09017431640625,-0.020060520619153976,-0.06613188236951828,-0.13889390230178833
1690821943124245000,6.100244873046875,0.00150682358071208,-0.04752757027745247,-0.08944378048181534
1690821943134285000,6.11028515625,0.019147837534546852,-0.008885715156793594,-0.06077667325735092
1690821943144325000,6.1203251953125,0.03131262585520744,0.07218996435403824,0.03623536229133606
1690821943154366000,6.130365966796875,0.03239139914512634,0.0337853841483593,0.11077277362346649
1690821943164406000,6.140406005859375,0.014431575313210487,0.07304437458515167,0.1434236615896225
1690821943174446000,6.150446044921875,-0.002600099891424179,0.096036896109581,0.1648697853088379
1690821943184486000,6.16048583984375,-0.01343170739710331,0.051824696362018585,0.17335382103919983
1690821943194527000,6.17052685546875,-0.017710726708173752,0.0436263233423233,0.15463832020759583
1690821943204567000,6.180567138671875,-0.01414848119020462,0.019650151953101158,0.11927340179681778
1690821943214607000,6.190607177734375,-0.009764167480170727,-0.008899098262190819,0.07931350916624069
1690821943224648000,6.20064794921875,-0.007545754313468933,-0.03261108696460724,0.027580272406339645
1690821943234688000,6.21068798828125,-0.000050045084208250046,-0.05212516337633133,-0.021603500470519066
1690821943244728000,6.22072802734375,0.0020173669327050447,-0.06133650615811348,-0.06839124113321304
1690821943254767900,6.230767822265625,0.008122202008962631,-0.05813812091946602,-0.10705960541963577
1690821943264809000,6.24080908203125,0.011793635785579681,-0.03684401884675026,-0.1375884711742401
1690821943274849000,6.25084912109375,0.008645246736705303,-0.011575679294764996,-0.14848241209983826
1690821943284889000,6.26088916015625,0.004361552186310291,0.014360313303768635,-0.1466568112373352
1690821943294930000,6.270929931640625,0.001305535202845931,0.028790265321731567,-0.1248990148305893
1690821943304970000,6.280969970703125,-0.003570978529751301,0.031182583421468735,-0.08552683889865875
1690821943315041000,6.291041015625,-0.0041471305303275585,0.024570969864726067,-0.04027590528130531
1690821943325081000,6.3010810546875,-0.002880530897527933,0.01074943132698536,0.007873514667153358
1690821943335121000,6.311120849609375,-0.0024000569246709347,-0.007274456322193146,0.057034894824028015
1690821943345161000,6.321160888671875,-0.0009712707251310349,-0.016581671312451363,0.09059286117553711
1690821943355202000,6.3312021484375,0.00008823582902550697,-0.018373172730207443,0.11351991444826126
1690821943365242000,6.3412421875,0.0006384449079632759,-0.01648392714560032,0.11739454418420792
1690821943375282200,6.3512822265625,-0.00286250002682209,-0.004414851777255535,0.10833576321601868
1690821943385323000,6.361322998046875,-0.0024510417133569717,0.007640213239938021,0.0849316269159317
1690821943395363000,6.371363037109375,-0.0020562903955578804,0.017600631341338158,0.05506501346826553
1690821943405403000,6.38140283203125,-0.0036307508125901222,0.02260604314506054,0.02301626466214657
1690821943415455700,6.391455810546875,-0.0025384239852428436,0.021798307076096535,-0.012874016538262367
1690821943425496800,6.401496826171875,0.0003260723315179348,0.015387811698019505,-0.04356054961681366
1690821943435537000,6.411536865234375,0.0023922619875520468,0.0018472826341167092,-0.06732936203479767
1690821943445576700,6.42157666015625,0.0029171709902584553,-0.010588880628347397,-0.08248700946569443
1690821943455617800,6.43161767578125,0.004018161445856094,-0.02089093253016472,-0.08596619963645935
1690821943465657600,6.44165771484375,0.003031193744391203,-0.025444937869906425,-0.07989819347858429
1690821943475697700,6.45169775390625,0.000784402247518301,-0.024601414799690247,-0.06536997854709625
1690821943485737700,6.46173779296875,0.002089617308229208,-0.021184580400586128,-0.041730694472789764
1690821943495778800,6.47177880859375,-0.00044655846431851387,-0.009100126102566719,-0.018378430977463722
1690821943505849900,6.481849853515625,-0.0005243225023150444,0.003434574231505394,0.009106723591685295
1690821943515889700,6.4918896484375,-0.0001815343275666237,0.013860970735549927,0.03438327834010124
1690821943525929700,6.5019296875,-0.0029168673790991306,0.019510602578520775,0.05506991595029831
1690821943535969800,6.5119697265625,-0.0011508073657751083,0.020097659900784492,0.061358045786619186
1690821943546010600,6.5220107421875,-0.00032416218891739845,0.015361227095127106,0.06349523365497589
1690821943556050700,6.53205078125,-0.0003110109828412533,0.009452744387090206,0.057243622839450836
1690821943566090800,6.5420908203125,-0.0003498932346701622,0.0013985465047881007,0.044966720044612885
1690821943576130800,6.552130859375,-0.00008479133248329163,-0.004808655474334955,0.027965255081653595
1690821943586172000,6.562171875,0.000013213139027357101,-0.009161858819425106,0.005934521555900574
1690821943596211700,6.572211669921875,0.0014616746921092272,-0.010063416324555874,-0.012675348669290543
1690821943606251800,6.582251708984375,0.00018815090879797935,-0.00862424448132515,-0.031343042850494385
1690821943616292600,6.592292724609375,0.0009296457283198833,-0.0049704574048519135,-0.04328499734401703
1690821943626332700,6.602332763671875,0.00241382559761405,-0.0008928913157433271,-0.04819559305906296
1690821943636372700,6.612372802734375,-0.0003447551280260086,0.0033269142732024193,-0.04990021139383316
1690821943646412800,6.622412841796875,0.0006264997646212578,0.00206830445677042,-0.04207504540681839
1690821943656454000,6.632453857421875,-0.0005480162799358368,0.0020854659378528595,-0.03010568581521511
1690821943666493700,6.64249365234375,-0.001618074718862772,-0.001249078195542097,-0.014238042756915092
1690821943676533800,6.65253369140625,0.00034012505784630775,-0.0023107368033379316,0.001917220652103424
1690821943686574600,6.66257470703125,-0.0006830617785453796,-0.001434556907042861,0.017017344012856483
1690821943696644900,6.672644775390625,-0.0014083823189139366,-0.0011265692301094532,0.029843050986528397
1690821943706685700,6.682685791015625,-0.00017134379595518112,-0.0013406872749328613,0.037662357091903687
1690821943716725800,6.692725830078125,-0.00029844697564840317,0.003516987431794405,0.03749091923236847
1690821943726765800,6.702765869140625,-0.00002094591036438942,0.0030890172347426414,0.03204289451241493
1690821943736807000,6.712806884765625,-0.00028266431763768196,0.006784084253013134,0.025003552436828613
1690821943746846700,6.7228466796875,-0.0016738995909690857,0.006372892297804356,0.016754144802689552
1690821943756886800,6.73288671875,-0.0014318181201815605,0.006002180278301239,0.0054266564548015594
1690821943766926800,6.7429267578125,0.0014337431639432907,0.0007027561077848077,-0.008859071880578995
1690821943776967700,6.7529677734375,0.0003563063219189644,-0.0020749475806951523,-0.016571395099163055
1690821943787007700,6.7630078125,0.0008686985820531845,-0.0036478103138506413,-0.024511877447366714
1690821943797047800,6.7730478515625,0.0012488882057368755,-0.006797049194574356,-0.02904020994901657
1690821943807089000,6.7830888671875,-0.0003623240627348423,-0.006835931912064552,-0.02535545825958252
1690821943817128700,6.793128662109375,0.0008783726952970028,-0.006974874064326286,-0.022358020767569542
1690821943827168800,6.803168701171875,0.0014032816980034113,-0.0017308439128100872,-0.015399711206555367
1690821943837208800,6.813208740234375,-0.0003747311420738697,0.0013107291888445616,-0.0064271483570337296
1690821943847249700,6.823249755859375,0.0009712302125990391,0.001871058251708746,0.001729581505060196
1690821943857289700,6.833289794921875,0.0001717028208076954,0.0036248574033379555,0.00879151001572609
1690821943867329800,6.843329833984375,-0.000306867528706789,0.005901860073208809,0.016629459336400032
1690821943877371000,6.853370849609375,0.0002565477043390274,0.003369406331330538,0.019887162372469902
1690821943887440600,6.863440673828125,0.0009942431934177876,0.0027009528130292892,0.019715921953320503
1690821943897481700,6.873481689453125,-0.00012610945850610733,0.0019149063155055046,0.017511587589979172
1690821943907521800,6.883521728515625,-0.000993500929325819,0.0001878463663160801,0.012533074244856834
1690821943917561900,6.893561767578125,0.001085667870938778,-0.0018647974357008934,0.008628308773040771
1690821943927602000,6.903601806640625,-0.0006160917691886425,-0.0029148817993700504,0.0012540146708488464
1690821943937642800,6.913642822265625,0.0010677464306354523,-0.0023273613769561052,-0.005478115752339363
1690821943947682800,6.923682861328125,-0.000036932528018951416,-0.003248016582801938,-0.012325901538133621
1690821943957722600,6.93372265625,0.0001359386369585991,-0.0004550761077553034,-0.013804281130433083
1690821943967763700,6.943763671875,-0.0011413134634494781,0.000014971708878874779,-0.015420818701386452
1690821943977803800,6.9538037109375,0.0012699977960437536,0.0003255049232393503,-0.01506241038441658
1690821943987843800,6.96384375,0.0008220542222261429,-1.9976869225502014e-7,-0.011601101607084274
1690821943997884000,6.9738837890625,-0.0014321943745017052,-0.0007079725619405508,-0.007260264828801155
1690821944007924700,6.9839248046875,-0.0006106090731918812,-0.003445968497544527,0.0002980530261993408
1690821944017964800,6.99396484375,0.0017443443648517132,0.0011892501497641206,0.006102480925619602
1690821944028004600,7.004004638671875,-0.0017622397281229496,-0.001255531795322895,0.009557133540511131
1690821944038045700,7.014045654296875,0.0005714693106710911,0.00006362446583807468,0.010495791211724281
1690821944048085800,7.024085693359375,-0.00020537478849291801,0.001105719362385571,0.011173832230269909
1690821944058125800,7.034125732421875,0.00039111729711294174,0.0008178994758054614,0.007899288088083267
1690821944068166000,7.044165771484375,-0.0003585624508559704,0.0019550693687051535,0.010099591687321663
1690821944078237000,7.05423681640625,0.000015731435269117355,0.0009044676553457975,0.0036450158804655075
1690821944088276700,7.06427685546875,-0.00009931717067956924,0.0012733153998851776,0.001875346526503563
1690821944098317800,7.07431787109375,0.00022210506722331047,-0.0014652423560619354,-0.0017996151000261307
1690821944108357600,7.084357666015625,-0.0004588649608194828,-0.0010881386697292328,-0.007381867617368698
1690821944118397700,7.094397705078125,0.0007936484180390835,-0.0005740097258239985,-0.009005114436149597
1690821944128438800,7.104438720703125,0.0006421143189072609,-0.002500273985788226,-0.010394485667347908
1690821944138478800,7.114478759765625,0.00036009354516863823,-0.0024474284145981073,-0.009981522336602211
1690821944148519000,7.124518798828125,0.00017100898548960686,-0.0013025354128330946,-0.0058512259274721146
1690821944158558700,7.134558837890625,0.0006247228011488914,-0.000484042102470994,-0.005716964602470398
1690821944168599800,7.144599853515625,0.0007581473328173161,-0.0012494344264268875,-0.001393057405948639
1690821944178639600,7.1546396484375,0.0016163620166480541,0.001072338200174272,0.0014017559587955475
1690821944188679700,7.1646796875,-0.0014382838271558285,0.001414021709933877,0.005170394666492939
1690821944198720800,7.174720703125,-0.0015661288052797318,0.0008380180224776268,0.006303294561803341
1690821944208760800,7.1847607421875,0.0006730570457875729,0.002600231673568487,0.007819431833922863
1690821944218801000,7.19480078125,-0.0013245991431176662,0.00027987314388155937,0.007034747861325741
1690821944228840700,7.2048408203125,0.00004586344584822655,-0.0008863252587616444,0.006905051879584789
1690821944238881800,7.2148818359375,-0.001099183689802885,0.0006744330748915672,0.004406776279211044
1690821944248921900,7.224921875,0.0014113783836364746,-0.0019679556135088205,0.0015513338148593903
1690821944258992600,7.23499267578125,-0.0006243186071515083,-0.00019727367907762527,-0.0009809471666812897
1690821944269032700,7.24503271484375,-0.0016658809036016464,-0.000012982869520783424,-0.0026313066482543945
1690821944279072800,7.25507275390625,0.0006547360680997372,0.0009595399023965001,-0.005871390923857689
1690821944289113900,7.26511376953125,-0.00014394568279385567,-0.0008777750190347433,-0.005344085395336151
1690821944299154000,7.27515380859375,-0.000015824567526578903,-0.0002938946709036827,-0.005371522158384323
1690821944309193700,7.28519384765625,0.0007074903696775436,0.0002030511386692524,-0.006108950823545456
1690821944319234800,7.29523486328125,-0.00041295401751995087,-0.0010675126686692238,-0.00236503966152668
1690821944329274600,7.305274658203125,0.0008416608907282352,-0.0005481962580233812,-0.0021013859659433365
1690821944339314700,7.315314697265625,0.0001709158532321453,-0.001052211970090866,0.0010767970234155655
1690821944349354800,7.325354736328125,0.001309949904680252,0.0014998952392488718,0.002231808379292488
1690821944359395800,7.335395751953125,0.0004663802683353424,0.00020109745673835278,0.00217382051050663
1690821944369436000,7.345435791015625,-0.0003930218517780304,-0.0011685662902891636,0.003759201616048813
1690821944379475700,7.355475830078125,-0.00011662347242236137,0.0005569250788539648,0.0036418214440345764
1690821944389516800,7.365516845703125,0.001359300222247839,0.00039607007056474686,0.00570816732943058
1690821944399556900,7.375556884765625,-7.296912372112274e-7,0.0014121575513854623,0.0021240059286355972
1690821944409578000,7.385577880859375,-0.0002782312221825123,-0.001927712932229042,0.001640908420085907
1690821944419618000,7.3956181640625,0.0021788424346596003,-0.0012340799439698458,-0.0009460728615522385
1690821944429659100,7.4056591796875,0.0003849370405077934,0.00013611651957035065,-0.0019010808318853378
1690821944439699200,7.41569921875,-0.0003484985791146755,-0.0005446756258606911,-0.0033039357513189316
1690821944449770200,7.425770263671875,-0.0006558271124958992,0.0003671906888484955,-0.002357183024287224
1690821944459810000,7.43581005859375,-0.000031002331525087357,-0.0016457128804177046,-0.0017549805343151093
1690821944469850000,7.44585009765625,0.0015431924257427454,-0.0004981567617505789,-0.0030846968293190002
1690821944479891000,7.455890869140625,0.0007152482867240906,-0.0005367156118154526,-0.0021298136562108994
1690821944489931000,7.465930908203125,0.001220982288941741,0.0003732866607606411,-0.0014214124530553818
1690821944499971000,7.47597119140625,-0.00042081112042069435,0.0010151718743145466,-0.00002582557499408722
1690821944510011100,7.48601123046875,-0.0004538344219326973,-0.001229872927069664,0.0028482582420110703
1690821944520052200,7.49605224609375,0.0013416220899671316,0.002421395620331168,0.0010216683149337769
1690821944530092300,7.50609228515625,-0.00040780846029520035,-0.0007951704319566488,0.0009897109121084213
1690821944540132000,7.516132080078125,-0.00011959299445152283,-0.0007101641967892647,0.0008468925952911377
1690821944550173000,7.5261728515625,-0.00006313389167189598,0.002778310328722,0.0024043098092079163
1690821944560213000,7.536212890625,-0.0014415020123124123,0.0008634275291115046,0.0003660675138235092
1690821944570253000,7.546253173828125,-0.00006278324872255325,-0.000022872351109981537,0.0006795208901166916
1690821944580293000,7.556293212890625,0.0011884851846843958,-0.0000013890676200389862,-0.0012624431401491165
1690821944590334200,7.566334228515625,0.0012950114905834198,0.0006433622911572456,-0.0011426005512475967
1690821944600374300,7.576374267578125,-0.0005653859116137028,0.00037798890843987465,0.00005920231342315674
1690821944610414000,7.5864140625,-0.0014106729067862034,-0.0006819493137300014,-0.001747751608490944
1690821944620455000,7.596454833984375,-0.0000818232074379921,-0.00044061755761504173,-0.0015984810888767242
1690821944630495000,7.606494873046875,0.0000891517847776413,0.0017378481570631266,-0.0011105909943580627
1690821944640566000,7.61656591796875,-0.0012759417295455933,-0.00004576612263917923,-0.0000744890421628952
1690821944650606000,7.626606201171875,0.00028094230219721794,0.0017199097201228142,-0.0010811630636453629
1690821944660646100,7.636646240234375,0.0009155645966529846,-0.0001951416488736868,-0.000029822811484336853
1690821944670686200,7.646686279296875,-0.0017792880535125732,-0.000960534205660224,0.0020327940583229065
1690821944680727300,7.656727294921875,0.00024963123723864555,0.00021091732196509838,0.000544549897313118
1690821944690767000,7.66676708984375,-0.000683274120092392,0.0032903305254876614,0.002034321427345276
1690821944700807200,7.67680712890625,-0.0001546158455312252,0.000823004636913538,0.0015362929552793503
1690821944710848000,7.686847900390625,0.0009580524638295174,0.002106115687638521,0.0013501383364200592
1690821944720888000,7.69688818359375,0.00036626262590289116,0.0004550295416265726,-0.00039380602538585663
1690821944730928000,7.70692822265625,0.000934048555791378,0.0015490561490878463,0.00033403560519218445
1690821944740968200,7.71696826171875,0.00021581444889307022,-0.00048473174683749676,-0.001868007704615593
1690821944751009300,7.72700927734375,0.0002541639842092991,-0.00021974719129502773,-0.0020855888724327087
1690821944761049000,7.737049072265625,0.0012139067985117435,-0.0009014634415507317,-0.0007246024906635284
1690821944771089200,7.747089111328125,0.000840531662106514,0.0013811319367960095,-0.0022282246500253677
1690821944781130000,7.7571298828125,0.0008820393122732639,0.0004724329337477684,-0.001391921192407608
1690821944791170000,7.767170166015625,0.0007720510475337505,0.00047962344251573086,-0.00023584254086017609
1690821944801210000,7.777210205078125,-0.00005574151873588562,-0.00018475158140063286,-0.0004211515188217163
1690821944811250200,7.787250244140625,0.00014159874990582466,-0.0007994093466550112,-0.00009225122630596161
1690821944821291300,7.797291259765625,-0.0005864347331225872,0.000022512627765536308,0.0023272521793842316
1690821944831362300,7.8073623046875,-0.0003643273375928402,0.0002555393148213625,-0.0003710612654685974
1690821944841402000,7.817402099609375,0.000509792473167181,-0.0017039163503795862,0.0025191400200128555
1690821944851442200,7.827442138671875,0.0009702527895569801,-0.0019020556937903166,0.0017204582691192627
1690821944861482200,7.837482177734375,-0.00001538218930363655,-0.0001798202283680439,0.0000870637595653534
1690821944871523000,7.847523193359375,-0.00032084668055176735,0.0002609328366816044,-0.00003624148666858673
1690821944881563100,7.857563232421875,0.0009804274886846542,0.0014860086375847459,-0.0008511357009410858
1690821944891603200,7.867603271484375,-0.0003942963667213917,-0.00169753422960639,-0.0001565832644701004
1690821944901644300,7.877644287109375,0.0003493763506412506,0.0014605345204472542,0.00016929395496845245
1690821944911684000,7.88768408203125,0.00000955723226070404,-0.00037464965134859085,-0.0015497766435146332
1690821944921724200,7.89772412109375,-0.0008113761432468891,0.00006576883606612682,-0.000677669420838356
1690821944931764200,7.90776416015625,-0.0017322972416877747,-0.0008490269538015127,0.00014657899737358093
1690821944941805000,7.91780517578125,-0.0010989932343363762,-0.00020531751215457916,-0.001567259430885315
1690821944951845000,7.92784521484375,0.0009194165468215942,0.0004319767467677593,-0.0013866964727640152
1690821944961885200,7.93788525390625,0.0004955162294209003,-0.0003352598287165165,-0.0005158465355634689
1690821944971925000,7.947925048828125,0.0004718140698969364,-0.00025776191614568233,-0.00017815828323364258
1690821944981966000,7.957966064453125,-0.000978162046521902,0.00038375682197511196,-0.0012172181159257889
1690821944992006100,7.968006103515625,-0.0003864080645143986,-0.0006380982231348753,0.0007133074104785919
1690821945002046200,7.978046142578125,-0.0012562084011733532,0.0014560377458110452,0.0009909141808748245
1690821945012117200,7.9881171875,0.0012729954905807972,-0.001771979732438922,0.002268698066473007
1690821945022157300,7.9981572265625,-0.00006522145122289658,-0.0012048736680299044,0.0006718393415212631
1690821945032198100,8.0081982421875,0.0006205425597727299,0.0010497586335986853,-0.000992635264992714
1690821945042238200,8.01823828125,0.0010761525481939316,0.000003128545358777046,0.0004011578857898712
1690821945052278000,8.028278076171874,0.0003826655447483063,-0.0013731932267546654,-0.00001642666757106781
1690821945062319000,8.038319091796875,-0.00017179735004901886,0.00045031867921352386,-0.001329869031906128
1690821945072359200,8.048359130859374,0.00016029877588152885,0.0034399833530187607,0.002194557338953018
1690821945082399200,8.058399169921875,0.0010646623559296131,0.0032111937180161476,-0.0023344736546278
1690821945092439300,8.068439208984374,-0.000275174155831337,0.0006393790245056152,0.0006754305213689804
1690821945102480100,8.078480224609375,-0.0001905728131532669,-0.002404430415481329,-0.0024292003363370895
1690821945112520200,8.088520263671874,0.000053106341511011124,-0.0007367590442299843,-0.0016861781477928162
1690821945122560000,8.09856005859375,-0.00019888347014784813,0.001328920479863882,-0.0003819689154624939
1690821945132601000,8.10860107421875,0.0004338836297392845,0.0005789743736386299,0.0013634655624628067
1690821945142641200,8.11864111328125,-0.0006229830905795097,0.0002997082192450762,0.00012026168406009674
1690821945152681200,8.12868115234375,-0.001094629056751728,-0.0008233468979597092,0.0010092239826917648
1690821945162721300,8.13872119140625,0.0011974414810538292,0.001129358890466392,-0.0008218586444854736
1690821945172762000,8.14876220703125,0.0007257955148816109,0.0002065736334770918,0.0004298277199268341
1690821945182802200,8.15880224609375,-0.000037395860999822617,-0.002124872524291277,-0.0004833173006772995
1690821945192842200,8.16884228515625,-0.0001798747107386589,-0.00024388195015490055,-0.0002412348985671997
1690821945202913000,8.1789130859375,0.00011050142347812653,-0.0008301844354718924,-0.0015517454594373703
1690821945212953000,8.188953125,0.0024490230716764927,-0.0005031481850892305,-0.0007184427231550217
1690821945222994200,8.198994140625,-0.0004698201082646847,0.0018024272285401821,-0.0010893382132053375
1690821945233034200,8.2090341796875,-0.0005768793635070324,-0.0006508766673505306,0.00009683333337306976
1690821945243074300,8.21907421875,-0.0001254826784133911,0.0008112918585538864,-0.0010858755558729172
1690821945253114000,8.229114013671875,0.001728343777358532,0.0005662810290232301,0.00124252587556839
1690821945263155200,8.2391552734375,-0.00024853553622961044,0.001149205258116126,0.0005120709538459778
1690821945273195000,8.249195068359375,0.0008920961990952492,0.0005963330622762442,-0.00006290525197982788
1690821945283235000,8.259235107421874,-0.0005431375466287136,-0.00034774281084537506,0.0006588511168956757
1690821945293276200,8.269276123046875,0.00029256241396069527,-0.0008699886966496706,-0.0007166732102632523
1690821945303316200,8.279316162109374,0.0002230508252978325,0.001209479058161378,-0.00026156939566135406
1690821945313356300,8.289356201171875,0.0005482230335474014,-0.0007665865123271942,0.0009206067770719528
1690821945323396000,8.29939599609375,0.00020337523892521858,0.00040909089148044586,0.00019078701734542847
1690821945333437200,8.309437255859375,0.0002766121178865433,-0.000666826032102108,0.00045337527990341187
1690821945343477200,8.319477294921874,0.000269272830337286,0.0008358858758583665,0.0013484843075275421
1690821945353517000,8.32951708984375,-0.0012338152155280113,0.0019429619424045086,-0.0001687183976173401
1690821945363558100,8.33955810546875,-0.0002995184622704983,-0.0013993466272950172,-0.0004477817565202713
1690821945373598200,8.34959814453125,0.001352973049506545,-0.0007260993588715792,-0.0008262153714895248
1690821945383638000,8.359637939453124,-0.00035384250804781914,-0.0009350536856800318,0.001992329955101013
1690821945393709000,8.369708984375,-0.000620424747467041,-0.00009988644160330296,0.0010029654949903488
1690821945403749000,8.3797490234375,0.0016470688860863447,0.00029492215253412724,0.002430131658911705
1690821945413781800,8.38978173828125,0.0007636984810233116,0.0013015969889238477,0.0004679132252931595
1690821945423821600,8.399821533203125,-0.00011943327262997627,0.0015198655892163515,0.0018824078142642975
1690821945433861600,8.409861572265624,-0.00021184468641877174,-0.0024847297463566065,0.00025814585387706757
1690821945443901700,8.419901611328125,-0.00020117592066526413,-0.0013431671541184187,-0.000702468678355217
1690821945453942800,8.42994287109375,0.0007825959473848343,-0.0018073560204356909,-0.0004023294895887375
1690821945463982800,8.43998291015625,0.001309940591454506,0.00013417843729257584,0.0012558642774820328
1690821945474023000,8.45002294921875,-0.0005183196626603603,0.0010194132337346673,-0.00043044984340667725
1690821945484063000,8.46006298828125,-0.0005095954984426498,0.000609645270742476,0.0009979158639907837
1690821945494103800,8.470103759765625,-0.0008835028856992722,0.00007035513408482075,-0.0005626976490020752
1690821945504143600,8.4801435546875,-0.0016797571443021297,-0.001864518504589796,0.00008284486830234528
1690821945514183700,8.49018359375,0.0006491770036518574,-0.0014517286326736212,0.0005275923758745193
1690821945524224800,8.500224853515626,-0.00045893900096416473,0.0007351920939981937,0.0005679987370967865
1690821945534264800,8.510264892578125,-0.0006062118336558342,-0.0002509765326976776,0.0021086372435092926
1690821945544305000,8.520304931640625,-0.0000938931480050087,0.0005286996020004153,0.0005467161536216736
1690821945554345000,8.530344970703124,-0.0004563494585454464,0.0006224429234862328,0.0008127670735120773
1690821945564385800,8.5403857421875,0.00021089473739266396,0.0004213661886751652,-0.0003175586462020874
1690821945574456600,8.55045654296875,-0.0004271990619599819,-0.002735544927418232,-0.0001473836600780487
1690821945584496600,8.56049658203125,-0.00016934145241975784,-0.00116773322224617,0.0005122721195220947
1690821945594536700,8.57053662109375,0.0018107187934219837,-0.0008912971243262291,0.0010121464729309082
1690821945604576800,8.58057666015625,0.0012031365185976028,0.0011743111535906792,-0.0017151515930891037
1690821945614617900,8.590617919921876,-0.0007524224929511547,0.002522403374314308,-0.002667497843503952
1690821945624658000,8.600657958984375,0.0005446388386189938,-0.0016595707274973392,-0.00044213980436325073
1690821945634698000,8.610697998046875,0.0012437186669558287,-0.0006449061911553144,-0.0007486678659915924
1690821945644738800,8.62073876953125,0.0012386988382786512,-0.001163581619039178,-0.0005986914038658142
1690821945654778600,8.630778564453125,-0.0009402995929121971,0.000576527789235115,-0.0013920478522777557
1690821945664818700,8.640818603515624,0.0006575598381459713,0.0007849506800994277,-0.0001254156231880188
1690821945674858800,8.650858642578125,-0.0003557726740837097,0.0000531140249222517,-0.00027774833142757416
1690821945684899800,8.66089990234375,-0.00022907182574272156,-0.0014052740298211575,0.0011680349707603455
1690821945694940000,8.67093994140625,0.0015118368901312351,-0.0005743678193539381,-0.0007779356092214584
1690821945704980000,8.68097998046875,-0.0012308661825954914,-0.0003100840840488672,-0.00189298577606678
1690821945715020800,8.691020751953126,-0.0007072887383401394,0.0015988699160516262,-0.00018110498785972595
1690821945725060600,8.701060546875,-0.0013971743173897266,0.0008461088873445988,0.001391194760799408
1690821945735100700,8.7111005859375,0.0008566589094698429,-0.003496707882732153,-0.002682110294699669
1690821945745140700,8.721140625,-0.0007183123379945755,0.0007183074485510588,-0.0003767814487218857
1690821945755181800,8.731181884765626,-0.0018078116700053215,-0.000932053430005908,-0.0010894443839788437
1690821945765251800,8.741251953125,-0.0011011380702257156,-0.0005683815106749535,-0.001324482262134552
1690821945775293000,8.75129296875,-0.0010108565911650658,-0.002089845482259989,-0.00032712705433368683
1690821945785333000,8.7613330078125,-0.0006971121765673161,0.00013136607594788074,-0.0005563441663980484
1690821945795372800,8.771372802734374,-0.00005422532558441162,-0.00008408376015722752,-0.0005739200860261917
1690821945805413600,8.78141357421875,-0.00018239440396428108,-0.0004849229007959366,0.0007160268723964691
1690821945815453700,8.79145361328125,-0.0006921235471963882,-0.0012332713231444359,-0.0017798878252506256
1690821945825493800,8.80149365234375,0.00012720981612801552,0.0005625615594908595,-0.0010783784091472626
1690821945835533800,8.811533935546874,0.00000470457598567009,-0.002179695526137948,-0.00026052072644233704
1690821945845575000,8.821574951171876,0.00004015257582068443,0.0016405178466811776,-0.0005026813596487045
1690821945855615000,8.831614990234375,0.0005807741545140743,-0.00019040540792047977,0.0004078540951013565
1690821945865654800,8.84165478515625,-0.0015100017189979553,-0.0001573569606989622,0.0009355302900075912
1690821945875695600,8.851695556640625,-0.0003123781643807888,0.00011721509508788586,-0.00019551441073417664
1690821945885735700,8.861735595703125,0.0007734298706054688,0.0006087599322199821,-0.000008452683687210083
1690821945895775700,8.871775634765624,0.00018593622371554375,0.0010846668155863881,0.002281332388520241
1690821945905815800,8.88181591796875,0.0004201531410217285,0.00029782368801534176,-0.00007465295493602753
1690821945915857000,8.89185693359375,0.0010081790387630463,0.0009047579951584339,-0.00028317980468273163
1690821945925897000,8.90189697265625,0.00020958110690116882,-0.0005064043216407299,0.0007081702351570129
1690821945935936800,8.911936767578124,-0.0008367747068405151,0.0002611186355352402,0.00011082366108894348
1690821945946007800,8.9220078125,-0.0001918845809996128,0.00021523097530007362,-0.0011836700141429901
1690821945956048000,8.9320478515625,0.0013381014578044415,0.0007808862719684839,-0.0019003264605998993
1690821945966088700,8.942088623046875,-0.00005733128637075424,0.00005613756366074085,-0.000009411945939064026
1690821945976128800,8.952128662109375,-0.0004602675326168537,-0.00013667531311511993,0.0005056429654359818
1690821945986168800,8.9621689453125,-0.00016172369942069054,-0.0010632621124386787,0.00041642971336841583
1690821945996209000,8.972208984375,-0.000305800698697567,0.002586600137874484,-0.001736203208565712
1690821946006250000,8.98225,-0.001020069234073162,0.0011506855953484774,-0.00046211667358875275
1690821946016289800,8.992289794921875,-0.0018254094757139683,-0.0013854426797479391,-0.0014099366962909698
1690821946026329900,9.002329833984374,-0.000968527514487505,-0.0003251940943300724,0.0009174086153507233
1690821946036370700,9.01237060546875,0.00017583277076482773,-0.000030382303521037102,0.0006625428795814514
1690821946046410800,9.02241064453125,0.00046399468556046486,0.00040111737325787544,0.0006674844771623611
1690821946056450800,9.032450927734375,-0.0003642486408352852,0.0016914189327508211,0.000714888796210289
1690821946066491000,9.042490966796874,-0.0017093336209654808,0.0012385831214487553,0.00019218772649765015
1690821946076532000,9.052531982421876,0.0017346662934869528,0.00019036303274333477,0.0013948716223239899
1690821946086571800,9.06257177734375,0.0002336478792130947,-0.0006221802905201912,-0.00016371533274650574
1690821946096611800,9.07261181640625,0.0008922475390136242,0.0007192539051175117,-0.0002816934138536453
1690821946106652700,9.082652587890625,0.0012476781848818064,-0.001262132078409195,-0.00031266920268535614
1690821946116692700,9.092692626953125,-0.0009510274976491928,0.00040740356780588627,-0.001729469746351242
1690821946126732800,9.10273291015625,0.00006973883137106895,0.0006675543263554573,0.00011087022721767426
1690821946136803800,9.112803955078125,-0.00013718893751502037,0.000797516549937427,-0.0006406735628843307
1690821946146844000,9.122843994140625,-0.0007236902602016926,-0.0013874378055334091,0.00138796865940094
1690821946156885000,9.132885009765625,0.00019536633044481277,0.0005161897279322147,-0.0013020895421504974
1690821946166924800,9.1429248046875,0.0009055007249116898,-0.001016339287161827,-0.0014099497348070145
1690821946176964900,9.15296484375,0.00045143160969018936,0.00033681304194033146,0.0003093872219324112
1690821946187005000,9.1630048828125,0.0023235687986016273,0.001071142265573144,0.00026529282331466675
1690821946197045800,9.173045654296875,-0.0003936546854674816,-0.001055924454703927,0.00007833912968635559
1690821946207085800,9.1830859375,0.001013258472084999,0.0003828112967312336,0.0011766012758016586
1690821946217126000,9.1931259765625,0.0009767734445631504,0.001523709623143077,-0.00017362087965011597
1690821946227167000,9.2031669921875,0.00014564720913767815,0.0003381064161658287,-0.0002535916864871979
1690821946237206800,9.213206787109375,-0.0007643545977771282,-0.0005433999467641115,-0.001624319702386856
1690821946247246800,9.223246826171875,-0.0005906908772885799,0.000452644657343626,0.00024628080427646637
1690821946257287000,9.233286865234374,-0.0005427543073892593,-0.00024323933757841587,-0.0005867555737495422
1690821946267327700,9.24332763671875,-0.0004985458217561245,-0.0008044566493481398,-0.0005532950162887573
1690821946277367800,9.253367919921875,0.0013118709903210402,-0.0009208368137478828,0.0012041255831718445
1690821946287407900,9.263407958984375,0.0008489065803587437,-0.00019471673294901848,-0.0005347970873117447
1690821946297448000,9.273447998046874,-0.00010530417785048485,-0.00047434866428375244,0.0013507213443517685
1690821946307489000,9.283489013671876,-0.0013337517157196999,-0.0014900793321430683,-0.0013135913759469986
1690821946317528800,9.29352880859375,-0.000808576587587595,-0.00013506272807717323,0.0002275817096233368
1690821946327599900,9.303599853515625,-0.0013710311613976955,-0.0003734864294528961,-0.000029943883419036865
1690821946337640000,9.313639892578125,0.0005227429792284966,0.0009668825659900904,0.0014824643731117249
1690821946347679700,9.3236796875,-0.0003116736188530922,0.00271364557556808,0.0007512476295232773
1690821946357720800,9.333720947265626,0.0006957999430596828,0.001411093515343964,-0.00009004399180412292
1690821946367761000,9.343760986328125,-0.0007502580992877483,-0.0007687387987971306,0.00018466822803020477
1690821946377800700,9.35380078125,-0.0013353549875319004,-0.00029629399068653584,0.0002512466162443161
1690821946387841800,9.363841796875,-0.0003412696532905102,0.0017064503626897931,-0.00044289976358413696
1690821946397881900,9.3738818359375,-0.00033194851130247116,-0.0006887966301292181,0.0007914751768112183
1690821946407921700,9.383921630859374,-0.00040338560938835144,-0.002297651255503297,0.0010120347142219543
1690821946417957000,9.39395703125,0.00003523705527186394,0.00014579924754798412,0.0006181541830301285
1690821946427998000,9.403998046875,0.0012948166113346815,0.0005040210671722889,0.0010030195116996765
1690821946438038000,9.4140380859375,0.000499064102768898,-0.001087217591702938,-0.001611938700079918
1690821946448077800,9.424077880859375,0.0010402067564427853,0.00024344981648027897,-0.0014942903071641922
1690821946458119000,9.434118896484375,0.0006543146446347237,0.0005728828255087137,-0.00031770579516887665
1690821946468159000,9.444158935546875,0.00030519068241119385,-0.0010234620422124863,-0.00010473467409610748
1690821946478199000,9.454198974609374,-0.00016325945034623146,-0.0013299919664859772,-0.0003023408353328705
1690821946488239000,9.464239013671875,0.0020687738433480263,0.00292077730409801,0.000048119574785232544
1690821946498280000,9.474280029296875,0.0006005731411278248,0.00038571422919631004,-0.0005558840930461884
1690821946508350000,9.484349853515624,-0.00015178462490439415,-0.001084440853446722,0.0008473880589008331
1690821946518390800,9.494390869140625,-0.000010370742529630661,0.00011051958426833153,0.0005365964025259018
1690821946528430800,9.504430908203124,0.0000595911405980587,-0.0013636297080665827,0.0002925638109445572
1690821946538471000,9.514470947265625,-0.0007127257995307446,-0.001040055649355054,0.0005082786083221436
1690821946548512000,9.524511962890625,-0.00025741197168827057,0.00028473068960011005,0.00026216544210910797
1690821946558552000,9.534552001953125,-0.0008981684222817421,-0.0011299403849989176,0.0014238376170396805
1690821946568592100,9.544592041015624,-0.00010874029248952866,0.0016785936895757914,0.0013552326709032059
1690821946578632200,9.554632080078125,0.0012345581781119108,-0.00022130552679300308,-0.0026866476982831955
1690821946588673000,9.564673095703125,-0.0007547223940491676,-0.0010020381305366755,-0.00025177933275699615
1690821946598712800,9.574712890625,0.00022159237414598465,-0.00026221200823783875,0.0004084184765815735
1690821946608753000,9.5847529296875,0.0009297309443354607,-0.00021464424207806587,0.000016633421182632446
1690821946618794000,9.5947939453125,-0.000761908944696188,-0.0011518106330186129,0.00006936490535736084
1690821946628834000,9.604833984375,0.000264936126768589,-0.00017240596935153008,-0.0009238775819540024
1690821946638874000,9.6148740234375,0.0008505652658641338,-0.002457930939272046,0.0021038707345724106
1690821946648914200,9.6249140625,-0.00023276545107364655,0.0005536411190405488,0.0003909282386302948
1690821946658955000,9.634955078125,-0.0017169448547065258,-0.00021761027164757252,-0.0001811198890209198
1690821946668994800,9.644994873046874,0.0007378943264484406,0.0001407107338309288,0.0011552181094884872
1690821946679035000,9.655034912109375,0.0003384202718734741,0.0009673559106886387,-0.002356693148612976
1690821946689076000,9.665075927734375,0.0008072112686932087,0.00004238518886268139,0.0004127137362957001
1690821946699146000,9.67514599609375,0.00067911297082901,0.0007909997366368771,0.0009115226566791534
1690821946709187000,9.68518701171875,-0.00029891636222600937,0.0006905928021296859,-0.0003760922700166702
1690821946719227100,9.69522705078125,-0.0018177172169089317,0.0011766196694225073,0.0005245879292488098
1690821946729267200,9.70526708984375,0.00018531177192926407,0.0011552730575203896,0.0013360120356082916
1690821946739308000,9.71530810546875,0.001168284798040986,0.0008783043595030904,0.0009791497141122818
1690821946749347800,9.725347900390625,-0.0002150367945432663,-0.0008401758968830109,0.0003074798732995987
1690821946759388000,9.735387939453124,0.00016393139958381653,0.0009001999860629439,0.0008757971227169037
1690821946769428000,9.745427978515625,0.0012244293466210365,-0.00040806736797094345,0.0014957655221223831
1690821946779469000,9.755468994140625,0.0007485225796699524,0.00015865336172282696,-0.0002552643418312073
1690821946789509000,9.765509033203125,0.0005443617701530457,0.0007766209309920669,-0.0008254349231719971
1690821946799549200,9.775549072265624,-0.0003555202856659889,0.0000722147524356842,0.00025314465165138245
1690821946809589000,9.785589111328125,0.0001542358659207821,0.0017718066228553653,0.0010996274650096893
1690821946819629800,9.7956298828125,-0.0007714792154729366,0.0020490416791290045,0.001316409558057785
1690821946829670000,9.805669921875,-0.0005814689211547375,0.0006488122744485736,-0.0015959292650222778
1690821946839710000,9.8157099609375,1.6530975699424744e-7,-0.0006553377024829388,0.0005252789705991745
1690821946849751000,9.8257509765625,-0.000055202748626470566,-0.0002841996029019356,-0.0013847872614860535
1690821946859791000,9.835791015625,0.00035652192309498787,-0.00024078995920717716,-0.001191442832350731
1690821946869831200,9.8458310546875,0.0010616607032716274,-0.00043844664469361305,0.000015402212738990784
1690821946879902200,9.855902099609375,-0.000047013163566589355,-0.0011902570258826017,-0.0005398672074079514
1690821946889942000,9.86594189453125,-0.00009607942774891853,-0.0003466312773525715,-0.001119496300816536
1690821946899982800,9.87598291015625,-0.00047797663137316704,0.0016203795094043016,0.0007766745984554291
1690821946910023000,9.88602294921875,0.00007708743214607239,-0.0009767883457243443,-0.0011194851249456406
1690821946920063000,9.89606298828125,0.002232650062069297,0.002843782538548112,-0.0014084391295909882
1690821946930103000,9.90610302734375,0.0013271404895931482,0.0018609988037496805,0.002276349812746048
1690821946940144000,9.91614404296875,-0.0007360102608799934,-0.0006887116469442844,0.0004020165652036667
1690821946950184200,9.92618408203125,0.0003606216050684452,0.0005781165091320872,-0.00009995140135288239
1690821946960224000,9.93622412109375,-0.00018585892394185066,-0.0011345623061060905,-0.0006304532289505005
1690821946970264800,9.946264892578125,-0.0010295445099473,0.0011358894407749176,0.0005035996437072754
1690821946980305000,9.956304931640625,0.00042454153299331665,-0.0009187394753098488,0.00026790983974933624
1690821946990345000,9.966344970703124,0.000039256177842617035,-0.0003137227613478899,-0.00005439296364784241
1690821947000385000,9.976385009765625,-0.000017735175788402557,-0.0008191906381398439,-0.0006275046616792679
1690821947010426000,9.986426025390625,-0.0005012163892388344,-0.0010813083499670029,-0.0015928912907838821
1690821947020466200,9.996466064453125,0.0022479647304862738,-0.0002741040661931038,-0.002081315964460373
1690821947030506000,10.006506103515624,0.0013256615493446589,-0.000007083173841238022,0.00016490928828716278
1690821947040546800,10.016546875,-0.000681296456605196,-0.0004696741234511137,0.00036650896072387695
1690821947050587000,10.0265869140625,-0.0006428118795156479,-0.001374570420011878,0.0005474388599395752
1690821947060627000,10.036626953125,-0.0003669080324470997,0.00040575279854238033,0.0007240064442157745
1690821947070698000,10.046697998046875,-0.000059655867516994476,0.000036903657019138336,-0.0012422911822795868
1690821947080738000,10.056738037109374,-0.0014700661413371563,-0.0007215647492557764,-0.0016343072056770325
1690821947090778000,10.066778076171875,-0.0005203792825341225,0.0028466698713600636,0.0006782207638025284
1690821947100819200,10.076819091796875,-0.00005192914977669716,0.00040881242603063583,-0.0002672020345926285
1690821947110859000,10.08685888671875,0.0009564664214849472,0.0006814922671765089,0.0003540981560945511
1690821947120899000,10.096899169921874,-0.0002073347568511963,-0.00007111695595085621,-0.0015244968235492706
1690821947130940000,10.10693994140625,-0.000172516331076622,-0.0012752185575664043,-0.00036752037703990936
1690821947140980000,10.11697998046875,0.00006557023152709007,0.0003868602216243744,-0.000010389834642410278
1690821947151020000,10.12702001953125,-0.00021940330043435097,-0.0005743496585637331,-0.0012661516666412354
1690821947161060000,10.13706005859375,0.0009124400094151497,-0.0015866172034293413,-0.0007841195911169052
1690821947171101200,10.14710107421875,-0.00012213457375764847,0.0007226967718452215,-0.0005884524434804916
1690821947181141000,10.15714111328125,-0.0002771303988993168,-0.001023005461320281,0.0025434251874685287
1690821947191181000,10.16718115234375,0.0004628072492778301,-0.00020158104598522186,0.001780012622475624
1690821947201222000,10.177221923828125,0.0017906595021486282,0.0009265339467674494,0.0005656108260154724
1690821947211262000,10.187261962890625,-0.001092678401619196,0.0015782658010721207,-0.0015015825629234314
1690821947221302000,10.197302001953124,0.00013716937974095345,0.0014919794630259275,-0.00015189312398433685
1690821947231342000,10.207342041015625,0.000782109797000885,0.0016934291925281286,0.0007599107921123505
1690821947241383200,10.217383056640625,-0.0006022010929882526,0.001703016459941864,-0.00017032958567142487
1690821947251454200,10.2274541015625,-0.0007408084347844124,0.0008372642332687974,-0.0010329820215702057
1690821947261494000,10.237493896484375,0.0002365713007748127,0.0006545714568346739,0.00018408149480819702
1690821947271534000,10.2475341796875,-0.0012048366479575634,-0.0011394480243325233,0.0004915948957204819
1690821947281574000,10.257573974609375,0.00005803443491458893,-0.0011189416982233524,-0.0001752600073814392
1690821947291615000,10.267614990234375,0.0002613919787108898,0.0009144166251644492,-0.0010570436716079712
1690821947301655000,10.277655029296875,-0.00046538468450307846,0.00017751986160874367,0.00031608156859874725
1690821947311695000,10.287695068359374,0.00002810964360833168,0.0016581425443291664,-0.001971527934074402
1690821947321735000,10.29773486328125,-0.0007383478805422783,0.00020219245925545692,-0.0007352884858846664
1690821947331776000,10.30777587890625,0.0005903886631131172,0.0011087844613939524,0.001236557960510254
1690821947341816000,10.317816162109375,0.0003171483986079693,-0.0008164145983755589,0.0003443993628025055
1690821947351855900,10.32785595703125,0.0007715546526014805,-0.001147679751738906,0.0006551109254360199
1690821947361897000,10.33789697265625,-0.0002513653598725796,-0.0004999989178031683,0.00028919242322444916
1690821947371937000,10.34793701171875,-0.00029620900750160217,0.0011768467957153916,0.0012243464589118958
1690821947381977000,10.35797705078125,0.000030827242881059647,-0.00235636904835701,-0.0009802170097827911
1690821947392017200,10.36801708984375,0.00041649211198091507,0.0009130155667662621,-0.0005234126001596451
1690821947402058200,10.378058349609375,0.000150974839925766,-0.00014958553947508335,-0.0005236789584159851
1690821947412098000,10.38809814453125,0.0008870996534824371,-0.001472224947065115,-0.000052576884627342224
1690821947422139400,10.398139404296876,0.001311607426032424,-0.00013318751007318497,0.00033810921013355255
1690821947432210400,10.40821044921875,0.0000017131678760051727,0.00011405558325350285,0.001077471300959587
1690821947442250500,10.41825048828125,0.0009551248513162136,0.00007037981413304806,-0.0016650520265102386
1690821947452291600,10.42829150390625,0.000739626120775938,-0.0006497008726000786,0.001528669148683548
1690821947462331600,10.43833154296875,0.0019316570833325386,-0.0007069590501487255,-0.0005877446383237839
1690821947472371500,10.448371337890626,0.001101464731618762,0.0025001924950629473,-0.001040695235133171
1690821947482412500,10.45841259765625,0.001083887880668044,-0.00029053399339318275,0.00014547817409038544
1690821947492452600,10.46845263671875,-0.00036567728966474533,-0.0002607617061585188,-0.00013981759548187256
1690821947502492400,10.478492431640625,0.0008196961134672165,0.0011840031947940588,0.0023877881467342377
1690821947512532500,10.488532470703126,0.0011114783119410276,0.0016311384970322251,0.0007519703358411789
1690821947522573600,10.498573486328125,0.0004273122176527977,-0.0004740904550999403,-0.0005186237394809723
1690821947532613600,10.508613525390626,0.000047005247324705124,-0.00031417515128850937,0.00013048388063907623
1690821947542653400,10.5186533203125,-0.0002709762193262577,-0.00012642238289117813,-0.0022165589034557343
1690821947552694500,10.528694580078126,0.0011526576709002256,-0.001375208143144846,0.00014731287956237793
1690821947562734600,10.538734619140625,-0.0007043643854558468,0.0008394765900447965,-0.0010806713253259659
1690821947572774400,10.5487744140625,0.001960338559001684,0.0017701198812574148,-0.0016137976199388504
1690821947582814500,10.558814453125,0.0008242339827120304,-0.0005995607934892178,-0.00044839829206466675
1690821947592855600,10.56885546875,-0.00025006942451000214,-0.0033492406364530325,-0.0013970974832773209
1690821947602895600,10.5788955078125,-0.0005427510477602482,0.0017387287225574255,-0.0005795080214738846
1690821947612935400,10.588935302734376,0.000508858822286129,-0.00002011912874877453,0.000752761960029602
1690821947623006500,10.59900634765625,0.00011657504364848137,0.0007165111601352692,-0.0009183716028928757
1690821947633046500,10.609046630859375,0.00021483469754457474,0.0011640837183222175,0.00011804886162281036
1690821947643087600,10.619087646484376,0.000944008119404316,0.0008527602767571807,0.0008181948214769363
1690821947653127400,10.62912744140625,0.000004156958311796188,0.0003497679717838764,0.0015030484646558762
1690821947663167500,10.63916748046875,0.0006782030686736107,-0.0019498718902468681,0.0010439194738864899
1690821947673207600,10.64920751953125,0.0007280954159796238,-0.001084066228941083,0.0012819953262805939
1690821947683248600,10.65924853515625,-0.0007278546690940857,-0.000777536304667592,0.0011712070554494858
1690821947693288400,10.669288330078125,0.0005647102370858192,0.000011404510587453842,0.000028721988201141357
1690821947703328500,10.67932861328125,0.0005489974282681942,-0.0010293587110936642,0.000342709943652153
1690821947713369600,10.68936962890625,0.00026821764186024666,0.0015873127849772573,0.0010861735790967941
1690821947723409400,10.699409423828126,-0.0005179475992918015,0.002398245269432664,0.000321047380566597
1690821947733449500,10.709449462890625,-0.00039372360333800316,0.00043974234722554684,-0.0005833655595779419
1690821947743489500,10.719489501953126,0.0012347996234893799,0.00024107052013278008,-0.000584164634346962
1690821947753530600,10.729530517578125,-0.0004924065433442593,0.0002440356183797121,-0.0015583429485559464
1690821947763570400,10.7395703125,0.000809080433100462,0.002401196165010333,-0.0003846883773803711
1690821947773610500,10.749610595703125,0.00007131695747375488,0.00024407356977462769,-0.0008257236331701279
1690821947783651600,10.759651611328126,0.0002758479677140713,-0.00019055441953241825,0.0017428956925868988
1690821947793691400,10.76969140625,0.0013723562005907297,0.0011246782960370183,0.0003386251628398895
1690821947803762400,10.779762451171875,0.000361420214176178,-0.0000037031713873147964,0.000714130699634552
1690821947813802500,10.789802490234376,0.0006912066601216793,0.0006210566498339176,0.0007812753319740295
1690821947823842600,10.799842529296875,-0.000513607170432806,-0.0004932100418955088,0.0013176370412111282
1690821947833882600,10.809882568359376,-0.00010762875899672508,0.00015830527991056442,0.00020290538668632507
1690821947843923500,10.81992333984375,0.0012172937858849764,0.0024725920520722866,0.0014956034719944
1690821947853963500,10.829963623046876,0.000011257361620664597,-0.001354415901005268,-0.0013063345104455948
1690821947864003300,10.84000341796875,-0.0005344245582818985,-0.0001626515295356512,-0.00041870400309562683
1690821947874044400,10.85004443359375,-0.0001763901673257351,0.0004873247817158699,0.0012932885438203812
1690821947884084500,10.86008447265625,-0.0008280659094452858,-0.001285275211557746,0.00039127469062805176
1690821947894124500,10.87012451171875,-0.0003064582124352455,0.0014908310258761048,-0.00048153288662433624
1690821947904164600,10.88016455078125,0.000622984953224659,0.00041810981929302216,-0.00014837272465229034
1690821947914205400,10.890205322265626,0.0007499055936932564,-0.00016785389743745327,0.0004551876336336136
1690821947924245500,10.90024560546875,0.00083193089812994,0.0002571865916252136,-0.002236468717455864
1690821947934285300,10.910285400390626,0.0006211013533174992,0.0016761412844061852,-0.0006849486380815506
1690821947944326400,10.920326416015625,-0.000652422197163105,0.0010516300098970532,-0.001280166208744049
1690821947954366500,10.930366455078126,-0.0007845861837267876,0.0016947316471487284,0.0005274415016174316
1690821947964406500,10.940406494140625,-0.0007848525419831276,-0.0021663194056600332,0.00041052885353565216
1690821947974446600,10.950446533203126,0.00005768612027168274,-0.0001340624876320362,0.000511951744556427
1690821947984487400,10.9604873046875,0.00017166929319500923,-0.0012027891352772713,0.0018398035317659378
1690821947994558500,10.970558349609375,0.0008220560848712921,-0.0005022208206355572,-0.0013088546693325043
1690821948004598500,10.9805986328125,0.00026359129697084427,0.0004983288235962391,-0.0013261660933494568
1690821948014638300,10.990638427734375,0.0008893497288227081,0.0009296437492594123,0.0006709583103656769
1690821948024678400,11.000678466796876,0.0007636481896042824,-0.000510860001668334,0.00039052776992321014
1690821948034719500,11.010719482421875,-0.0006161448545753956,0.0014205558691173792,0.00029603205621242523
1690821948044759600,11.020759521484376,0.00036682793870568275,-0.0005595043767243624,-0.00025950372219085693
1690821948054799600,11.030799560546875,0.0005845879204571247,-0.000780964270234108,0.0005041025578975677
1690821948064840400,11.04084033203125,0.0018639704212546349,0.00008429680019617081,-0.0005241446197032928
1690821948074880500,11.050880615234375,0.000243443064391613,0.00022283615544438362,0.0017800908535718918
1690821948084920300,11.06092041015625,0.00103679858148098,-0.0003396235406398773,-0.0008748136460781097
1690821948094960400,11.07096044921875,-0.0018721334636211395,0.00043086567893624306,-0.0014597605913877487
1690821948105001500,11.08100146484375,-0.000059586018323898315,0.0003768035676330328,-0.0005321819335222244
1690821948115041500,11.09104150390625,0.00035179127007722855,0.001707690884359181,0.000002201646566390991
1690821948125081600,11.10108154296875,-0.00017285160720348358,0.0012291207676753402,-0.0012835711240768433
1690821948135121700,11.11112158203125,0.0009255697950720787,0.001400535460561514,-0.000010829418897628784
1690821948145162500,11.12116259765625,0.0014097325038164854,0.0015001376159489155,-0.0004992540925741196
1690821948155202600,11.13120263671875,0.0007789693772792816,0.0005218479782342911,-0.0014581941068172455
1690821948165242400,11.141242431640626,0.00014620274305343628,0.0005050702020525932,0.00010534748435020447
1690821948175313400,11.1513134765625,0.00009726546704769135,-0.0008694890420883894,0.0009319242089986801
1690821948185353500,11.161353515625,0.0005739713087677956,-0.0020956082735210657,0.0014589633792638779
1690821948195394600,11.17139453125,-0.00012000510469079018,-0.000021077226847410202,-0.0007855705916881561
1690821948205434600,11.1814345703125,0.0011766881216317415,-0.0005297411698848009,-0.0005717184394598007
1690821948215474700,11.191474609375,0.001001633470878005,0.0013173059560358524,0.0008836034685373306
1690821948225515500,11.201515625,0.0015473151579499245,-0.0014017813373357058,-0.000586463138461113
1690821948235555300,11.211555419921876,0.0002470165491104126,0.0014263457851484418,-0.0006086248904466629
1690821948245595400,11.221595458984375,0.00017511099576950073,-0.0024394989013671875,0.001889420673251152
1690821948255635500,11.231635498046876,-0.0005025211721658707,0.00012784614227712154,-0.00008111074566841125
1690821948265676500,11.241676513671875,0.001616023713722825,-0.0013731115031987429,0.0010254327207803726
1690821948275716600,11.251716552734376,-0.0006074439734220505,-0.00008862349204719067,-0.000859435647726059
1690821948285756700,11.261756591796875,0.0009742076508700848,0.0011263106716796756,0.00237923301756382
1690821948295797500,11.271797607421876,-0.0009603966027498245,0.00042070006020367146,0.001419607549905777
1690821948305837300,11.28183740234375,-0.0008876924403011799,-0.004302682355046272,-0.002382321283221245
1690821948315877400,11.29187744140625,-0.0007699239067733288,0.000041121384128928185,-0.001187298446893692
1690821948325917400,11.30191748046875,0.00005246000364422798,-0.00038445182144641876,-0.0010195188224315643
1690821948335958500,11.31195849609375,0.001189983682706952,-0.0012940906453877687,0.0013566035777330399
1690821948345998600,11.32199853515625,-0.0006814193911850452,0.0008630699012428522,-0.0002996157854795456
1690821948356069600,11.332069580078125,-0.00031826458871364594,0.0005158227868378162,0.001290222629904747
1690821948366109700,11.342109619140626,-0.0006769923493266106,0.0011627046624198556,0.0011464115232229233
1690821948376149500,11.3521494140625,0.0021799884270876646,-0.00003545451909303665,-0.0012796297669410706
1690821948386190300,11.3621904296875,0.0002731648273766041,0.0019352847011759877,-0.0007952004671096802
1690821948396230400,11.37223046875,0.00002710428088903427,-0.0013345179613679647,0.0006951764225959778
1690821948406270500,11.3822705078125,-0.0007382882758975029,-0.002094051567837596,0.000031251460313797
1690821948416300800,11.39230078125,-0.0019284053705632687,0.00004437449388206005,0.00004035048186779022
1690821948426342000,11.402341796875,-0.00042345281690359116,-0.0009710888843983412,0.00010133720934391022
1690821948436381700,11.412381591796875,0.0009912089444696903,0.00015037530101835728,0.0004382617771625519
1690821948446421800,11.422421875,0.0010535269975662231,0.0000696815550327301,0.0008851401507854462
1690821948456462800,11.432462890625,0.00008569564670324326,0.000040427315980196,0.0009685121476650238
1690821948466502700,11.442502685546875,0.0011427043937146664,-0.0006402768194675446,-0.0004671979695558548
1690821948476542700,11.452542724609375,0.0016387449577450752,0.16094167530536652,-0.048975709825754166
1690821948486582800,11.462582763671875,-0.022119581699371338,-0.1380857676267624,-0.17124517261981964
1690821948496623900,11.472623779296875,-0.051846086978912354,-0.055371563881635666,-0.1901133805513382
1690821948506663700,11.48266357421875,-0.014396452344954014,-0.04514768719673157,-0.09453759342432022
1690821948516703700,11.492703857421875,0.0025123751256614923,-0.06507299840450287,-0.03762102127075195
1690821948526744800,11.502744873046876,0.03376510366797447,0.02228481136262417,0.038365889340639114
1690821948536784600,11.51278466796875,0.043435271829366684,0.0000789831392467022,0.12099599838256836
1690821948546855700,11.522855712890625,0.03270486369729042,0.06000889837741852,0.14896264672279358
1690821948556895700,11.532895751953125,0.020456260070204735,0.017144490033388138,0.15009135007858276
1690821948566935800,11.542935791015625,0.006626730784773827,0.06361398845911026,0.1640617549419403
1690821948576977000,11.552976806640626,-0.006249117664992809,0.030778534710407257,0.14843744039535522
1690821948587016700,11.5630166015625,-0.01311794389039278,0.009360861033201218,0.11774744093418121
1690821948597056800,11.573056884765625,-0.016203749924898148,-0.011107655242085457,0.08319060504436493
1690821948607096600,11.5830966796875,-0.016791243106126785,-0.029211824759840965,0.04259151965379715
1690821948617137700,11.5931376953125,-0.0110687967389822,-0.03962522745132446,0.0018036402761936188
1690821948627177700,11.603177734375,-0.0052005210891366005,-0.04719473421573639,-0.040766991674900055
1690821948637217800,11.6132177734375,-0.0002626720815896988,-0.04028601944446564,-0.07750281691551208
1690821948647257900,11.6232578125,0.006626392714679241,-0.025304408743977547,-0.11150765419006348
1690821948657298700,11.633298583984375,0.009728137403726578,-0.004796849098056555,-0.13462014496326447
1690821948667338800,11.6433388671875,0.008854621089994907,0.011558689177036285,-0.1453401744365692
1690821948677378600,11.653378662109375,0.004957085009664297,0.023340780287981033,-0.14471113681793213
1690821948687419600,11.663419677734375,-0.0006272974424064159,0.02591765485703945,-0.12334059178829193
1690821948697459700,11.673459716796875,-0.002629689872264862,0.019158929586410522,-0.08920128643512726
1690821948707499800,11.683499755859375,-0.00398470601066947,0.007225838024169207,-0.04520426690578461
1690821948717539800,11.693539794921875,-0.0035795625299215317,-0.005732073914259672,0.0010659974068403244
1690821948727611000,11.70361083984375,-0.00296676903963089,-0.01788913831114769,0.04245764762163162
1690821948737651700,11.713651611328125,0.0000750906765460968,-0.022619975730776787,0.07936836779117584
